PracticeFile,TrainingFile,TestFile,StimFile,audioStim,imageDescription,correct,imageStim,predicate,AS_tone,sentence,AS,AS_gloss,prompt,condition,question_gloss,predicate_gloss,question,sentence_gloss,OComp,speaker,OComp_gloss,trials.thisRepN,trials.thisTrialN,trials.thisN,trials.thisIndex,trials_3.thisRepN,trials_3.thisTrialN,trials_3.thisN,trials_3.thisIndex,trials_2.thisRepN,trials_2.thisTrialN,trials_2.thisN,trials_2.thisIndex,trials_4.thisRepN,trials_4.thisTrialN,trials_4.thisN,trials_4.thisIndex,trials_1.thisRepN,trials_1.thisTrialN,trials_1.thisN,trials_1.thisIndex,key_resp_2.keys,key_resp_2.rt,key_resp_4.keys,key_resp_4.rt,key_resp_8.keys,key_resp_8.rt,key_resp_9.keys,key_resp_9.rt,key_resp_5.keys,key_resp_5.corr,key_resp_5.rt,key_resp_6.keys,key_resp_6.rt,key_resp_3.keys,key_resp_3.rt,date,frameRate,expName,session,participant
SumiRating_stimuli-practice-chase_sleep.xlsx,SumiRating_stimuli-training-chase_sleep.xlsx,SumiRating_stimuli-test-chase_sleep.xlsx,SumiRating_stimuli-chase_sleep.xlsx,broad_chase_L2.wav,,p,chase_L2.PNG,ha,L2,atsü no ane ha cheni,atsü,dog,[W] Ku shi ani kea?; [P] Khu no ha cheni?,broad,What's happening?,chasing,Ku shi ani kea?,The dog is chasing the goat.,ane,1,goat,0,0,0,0,,,,,,,,,,,,,0,0,0,0,,,,,,,,,f,0,34.13820317,,,,,2018_Apr_05_1108,59.92834394,rating_try1,1,1
SumiRating_stimuli-practice-chase_sleep.xlsx,SumiRating_stimuli-training-chase_sleep.xlsx,SumiRating_stimuli-test-chase_sleep.xlsx,SumiRating_stimuli-chase_sleep.xlsx,narrow_chase_L1.wav,,w,chase_L1.PNG,ha,L1,awo no awudu ha cheni,awo,pig,[W] Ku shi ani kea?; [P] Khu no ha cheni?,narrow,What's chasing (the animal)?,chasing,Khu no ha cheni?,The pig is chasing the rooster.,awudu,1,rooster,0,0,0,0,,,,,,,,,,,,,0,1,1,1,,,,,,,,,f,0,10.89554313,,,,,2018_Apr_05_1108,59.92834394,rating_try1,1,1
SumiRating_stimuli-practice-chase_sleep.xlsx,SumiRating_stimuli-training-chase_sleep.xlsx,SumiRating_stimuli-test-chase_sleep.xlsx,SumiRating_stimuli-chase_sleep.xlsx,broad_sleep_L2.wav,,p,sleep_L2.PNG,zü,L2,atsü no zü ani,atsü,dog,[W] Ku shi ani kea?; [P] Khu no zü cheni?,broad,What's happening?,sleeping,Ku shi ani kea?,The dog is sleeping.,None,1,None,0,0,0,0,,,,,,,,,,,,,0,2,2,2,,,,,,,,,w,0,2.568469293,,,,,2018_Apr_05_1108,59.92834394,rating_try1,1,1
SumiRating_stimuli-practice-chase_sleep.xlsx,SumiRating_stimuli-training-chase_sleep.xlsx,SumiRating_stimuli-test-chase_sleep.xlsx,SumiRating_stimuli-chase_sleep.xlsx,narrow_sleep_M1.wav,,w,sleep_M1.PNG,zü,M1,avi no zü ani,avi,mithun,[W] Ku shi ani kea?; [P] Khu no zü cheni?,narrow,What's sleeping?,sleeping,Khu no zü ani?,The mithun is sleeping.,None,1,None,0,0,0,0,,,,,,,,,,,,,0,3,3,3,,,,,,,,,p,0,7.409185682,,,,,2018_Apr_05_1108,59.92834394,rating_try1,1,1
SumiRating_stimuli-practice-chase_sleep.xlsx,SumiRating_stimuli-training-chase_sleep.xlsx,SumiRating_stimuli-test-chase_sleep.xlsx,SumiRating_stimuli-chase_sleep.xlsx,narrow_chase_H2.wav,,w,chase_H2.PNG,ha,H2,akuhu no awo ha cheni,akuhu,gibbon,[W] Ku shi ani kea?; [P] Khu no ha cheni?,narrow,What's chasing (the animal)?,chasing,Khu no ha cheni?,The gibbon is chasing the pig.,awo,1,pig,0,0,0,0,,,,,,,,,,,,,0,4,4,4,,,,,,,,,f,0,13.75025266,,,,,2018_Apr_05_1108,59.92834394,rating_try1,1,1
SumiRating_stimuli-practice-chase_sleep.xlsx,SumiRating_stimuli-training-chase_sleep.xlsx,SumiRating_stimuli-test-chase_sleep.xlsx,SumiRating_stimuli-chase_sleep.xlsx,narrow_sleep_H3.wav,,w,sleep_H3.PNG,zü,H3,awudu no zü ani,awudu,rooster,[W] Ku shi ani kea?; [P] Khu no zü cheni?,narrow,What's sleeping?,sleeping,Khu no zü ani?,The rooster is sleeping.,None,1,None,0,0,0,0,,,,,,,,,,,,,0,5,5,5,,,,,,,,,p,0,1.819199511,,,,,2018_Apr_05_1108,59.92834394,rating_try1,1,1
SumiRating_stimuli-practice-chase_sleep.xlsx,SumiRating_stimuli-training-chase_sleep.xlsx,SumiRating_stimuli-test-chase_sleep.xlsx,SumiRating_stimuli-chase_sleep.xlsx,narrow_sleep_L4.wav,,w,sleep_L4.PNG,zü,L4,ane no zü ani,ane,goat,[W] Ku shi ani kea?; [P] Khu no zü cheni?,narrow,What's sleeping?,sleeping,Khu no zü ani?,The goat is sleeping.,None,1,None,0,0,0,0,,,,,,,,,,,,,0,6,6,6,,,,,,,,,p,0,3.588582797,,,,,2018_Apr_05_1108,59.92834394,rating_try1,1,1
SumiRating_stimuli-practice-chase_sleep.xlsx,SumiRating_stimuli-training-chase_sleep.xlsx,SumiRating_stimuli-test-chase_sleep.xlsx,SumiRating_stimuli-chase_sleep.xlsx,broad_sleep_M3.wav,,p,sleep_M3.PNG,zü,M3,ashe no zü ani,ashe,deer,[W] Ku shi ani kea?; [P] Khu no zü cheni?,broad,What's happening?,sleeping,Ku shi ani kea?,The deer is sleeping.,None,1,None,0,0,0,0,,,,,,,,,,,,,0,7,7,7,,,,,,,,,p,1,1.286594939,,,,,2018_Apr_05_1108,59.92834394,rating_try1,1,1
SumiRating_stimuli-practice-chase_sleep.xlsx,SumiRating_stimuli-training-chase_sleep.xlsx,SumiRating_stimuli-test-chase_sleep.xlsx,SumiRating_stimuli-chase_sleep.xlsx,broad_sleep_L1.wav,,p,sleep_L1.PNG,zü,L1,awo no zü ani,awo,pig,[W] Ku shi ani kea?; [P] Khu no zü cheni?,broad,What's happening?,sleeping,Ku shi ani kea?,The pig is sleeping.,None,1,None,0,0,0,0,,,,,,,,,,,,,0,8,8,8,,,,,,,,,p,1,0.652322252,,,,,2018_Apr_05_1108,59.92834394,rating_try1,1,1
SumiRating_stimuli-practice-chase_sleep.xlsx,SumiRating_stimuli-training-chase_sleep.xlsx,SumiRating_stimuli-test-chase_sleep.xlsx,SumiRating_stimuli-chase_sleep.xlsx,broad_chase_M2.wav,,p,chase_M2.PNG,ha,M2,ava no amishi ha cheni,ava,bear,[W] Ku shi ani kea?; [P] Khu no ha cheni?,broad,What's happening?,chasing,Ku shi ani kea?,The bear is chasing the cow.,amishi,1,cow,0,0,0,0,,,,,,,,,,,,,0,9,9,9,,,,,,,,,p,1,0.935002647,,,,,2018_Apr_05_1108,59.92834394,rating_try1,1,1
SumiRating_stimuli-practice-chase_sleep.xlsx,SumiRating_stimuli-training-chase_sleep.xlsx,SumiRating_stimuli-test-chase_sleep.xlsx,SumiRating_stimuli-chase_sleep.xlsx,broad_sleep_M4.wav,,p,sleep_M4.PNG,zü,M4,akhi no zü ani,akhi,bee,[W] Ku shi ani kea?; [P] Khu no zü cheni?,broad,What's happening?,sleeping,Ku shi ani kea?,The bee is sleeping.,None,1,None,0,0,0,0,,,,,,,,,,,,,0,10,10,10,,,,,,,,,p,1,0.786669477,,,,,2018_Apr_05_1108,59.92834394,rating_try1,1,1
SumiRating_stimuli-practice-chase_sleep.xlsx,SumiRating_stimuli-training-chase_sleep.xlsx,SumiRating_stimuli-test-chase_sleep.xlsx,SumiRating_stimuli-chase_sleep.xlsx,broad_chase_L4.wav,,p,chase_L4.PNG,ha,L4,ane no awo ha cheni,ane,goat,[W] Ku shi ani kea?; [P] Khu no ha cheni?,broad,What's happening?,chasing,Ku shi ani kea?,The goat is chasing the pig.,awo,1,pig,0,0,0,0,,,,,,,,,,,,,0,11,11,11,,,,,,,,,p,1,0.503285338,,,,,2018_Apr_05_1108,59.92834394,rating_try1,1,1
SumiRating_stimuli-practice-chase_sleep.xlsx,SumiRating_stimuli-training-chase_sleep.xlsx,SumiRating_stimuli-test-chase_sleep.xlsx,SumiRating_stimuli-chase_sleep.xlsx,narrow_chase_H4.wav,,w,chase_H4.PNG,ha,H4,apighi no amishi ha cheni,apighi,snake,[W] Ku shi ani kea?; [P] Khu no ha cheni?,narrow,What's chasing (the animal)?,chasing,Khu no ha cheni?,The snake is chasing the cow.,amishi,1,cow,0,0,0,0,,,,,,,,,,,,,0,12,12,12,,,,,,,,,p,0,0.752246686,,,,,2018_Apr_05_1108,59.92834394,rating_try1,1,1
SumiRating_stimuli-practice-chase_sleep.xlsx,SumiRating_stimuli-training-chase_sleep.xlsx,SumiRating_stimuli-test-chase_sleep.xlsx,SumiRating_stimuli-chase_sleep.xlsx,broad_chase_M4.wav,,p,chase_M4.PNG,ha,M4,akhi no ami ha cheni,akhi,bee,[W] Ku shi ani kea?; [P] Khu no ha cheni?,broad,What's happening?,chasing,Ku shi ani kea?,The bee is chasing the mosquito.,ami,1,mosquito,0,0,0,0,,,,,,,,,,,,,0,13,13,13,,,,,,,,,p,1,0.885655242,,,,,2018_Apr_05_1108,59.92834394,rating_try1,1,1
SumiRating_stimuli-practice-chase_sleep.xlsx,SumiRating_stimuli-training-chase_sleep.xlsx,SumiRating_stimuli-test-chase_sleep.xlsx,SumiRating_stimuli-chase_sleep.xlsx,narrow_sleep_H4.wav,,w,sleep_H4.PNG,zü,H4,apighi no zü ani,apighi,snake,[W] Ku shi ani kea?; [P] Khu no zü cheni?,narrow,What's sleeping?,sleeping,Khu no zü ani?,The snake is sleeping.,None,1,None,0,0,0,0,,,,,,,,,,,,,0,14,14,14,,,,,,,,,p,0,0.569423382,,,,,2018_Apr_05_1108,59.92834394,rating_try1,1,1
SumiRating_stimuli-practice-chase_sleep.xlsx,SumiRating_stimuli-training-chase_sleep.xlsx,SumiRating_stimuli-test-chase_sleep.xlsx,SumiRating_stimuli-chase_sleep.xlsx,narrow_sleep_L2.wav,,w,sleep_L2.PNG,zü,L2,atsü no zü ani,atsü,dog,[W] Ku shi ani kea?; [P] Khu no zü cheni?,narrow,What's sleeping?,sleeping,Khu no zü ani?,The dog is sleeping.,None,1,None,0,0,0,0,,,,,,,,,,,,,0,15,15,15,,,,,,,,,p,0,0.602191424,,,,,2018_Apr_05_1108,59.92834394,rating_try1,1,1
SumiRating_stimuli-practice-chase_sleep.xlsx,SumiRating_stimuli-training-chase_sleep.xlsx,SumiRating_stimuli-test-chase_sleep.xlsx,SumiRating_stimuli-chase_sleep.xlsx,broad_sleep_M1.wav,,p,sleep_M1.PNG,zü,M1,avi no zü ani,avi,mithun,[W] Ku shi ani kea?; [P] Khu no zü cheni?,broad,What's happening?,sleeping,Ku shi ani kea?,The mithun is sleeping.,None,1,None,0,0,0,0,,,,,,,,,,,,,0,16,16,16,,,,,,,,,p,1,0.719532105,,,,,2018_Apr_05_1108,59.92834394,rating_try1,1,1
SumiRating_stimuli-practice-chase_sleep.xlsx,SumiRating_stimuli-training-chase_sleep.xlsx,SumiRating_stimuli-test-chase_sleep.xlsx,SumiRating_stimuli-chase_sleep.xlsx,broad_chase_L1.wav,,p,chase_L1.PNG,ha,L1,awo no awudu ha cheni,awo,pig,[W] Ku shi ani kea?; [P] Khu no ha cheni?,broad,What's happening?,chasing,Ku shi ani kea?,The pig is chasing the rooster.,awudu,1,rooster,0,0,0,0,,,,,,,,,,,,,0,17,17,17,,,,,,,,,p,1,0.901624934,,,,,2018_Apr_05_1108,59.92834394,rating_try1,1,1
SumiRating_stimuli-practice-chase_sleep.xlsx,SumiRating_stimuli-training-chase_sleep.xlsx,SumiRating_stimuli-test-chase_sleep.xlsx,SumiRating_stimuli-chase_sleep.xlsx,narrow_chase_L4.wav,,w,chase_L4.PNG,ha,L4,ane no awo ha cheni,ane,goat,[W] Ku shi ani kea?; [P] Khu no ha cheni?,narrow,What's chasing (the animal)?,chasing,Khu no ha cheni?,The goat is chasing the pig.,awo,1,pig,0,0,0,0,,,,,,,,,,,,,0,18,18,18,,,,,,,,,w,1,2.320384412,,,,,2018_Apr_05_1108,59.92834394,rating_try1,1,1
SumiRating_stimuli-practice-chase_sleep.xlsx,SumiRating_stimuli-training-chase_sleep.xlsx,SumiRating_stimuli-test-chase_sleep.xlsx,SumiRating_stimuli-chase_sleep.xlsx,broad_sleep_H4.wav,,p,sleep_H4.PNG,zü,H4,apighi no zü ani,apighi,snake,[W] Ku shi ani kea?; [P] Khu no zü cheni?,broad,What's happening?,sleeping,Ku shi ani kea?,The snake is sleeping.,None,1,None,0,0,0,0,,,,,,,,,,,,,0,19,19,19,,,,,,,,,p,1,2.120256925,,,,,2018_Apr_05_1108,59.92834394,rating_try1,1,1
SumiRating_stimuli-practice-chase_sleep.xlsx,SumiRating_stimuli-training-chase_sleep.xlsx,SumiRating_stimuli-test-chase_sleep.xlsx,SumiRating_stimuli-chase_sleep.xlsx,broad_chase_L3.wav,,p,chase_L3.PNG,ha,L3,amishi no ane ha cheni,amishi,cow,[W] Ku shi ani kea?; [P] Khu no ha cheni?,broad,What's happening?,chasing,Ku shi ani kea?,The cow is chasing the goat.,ane,1,goat,0,0,0,0,,,,,,,,,,,,,0,20,20,20,,,,,,,,,p,1,3.020665087,,,,,2018_Apr_05_1108,59.92834394,rating_try1,1,1
SumiRating_stimuli-practice-chase_sleep.xlsx,SumiRating_stimuli-training-chase_sleep.xlsx,SumiRating_stimuli-test-chase_sleep.xlsx,SumiRating_stimuli-chase_sleep.xlsx,broad_sleep_H2.wav,,p,sleep_H2.PNG,zü,H2,akuhu no zü ani,akuhu,gibbon,[W] Ku shi ani kea?; [P] Khu no zü cheni?,broad,What's happening?,sleeping,Ku shi ani kea?,The gibbon is sleeping.,None,1,None,0,0,0,0,,,,,,,,,,,,,0,21,21,21,,,,,,,,,p,1,0.919490981,,,,,2018_Apr_05_1108,59.92834394,rating_try1,1,1
SumiRating_stimuli-practice-chase_sleep.xlsx,SumiRating_stimuli-training-chase_sleep.xlsx,SumiRating_stimuli-test-chase_sleep.xlsx,SumiRating_stimuli-chase_sleep.xlsx,broad_sleep_H3.wav,,p,sleep_H3.PNG,zü,H3,awudu no zü ani,awudu,rooster,[W] Ku shi ani kea?; [P] Khu no zü cheni?,broad,What's happening?,sleeping,Ku shi ani kea?,The rooster is sleeping.,None,1,None,0,0,0,0,,,,,,,,,,,,,0,22,22,22,,,,,,,,,p,1,0.31898155,,,,,2018_Apr_05_1108,59.92834394,rating_try1,1,1
SumiRating_stimuli-practice-chase_sleep.xlsx,SumiRating_stimuli-training-chase_sleep.xlsx,SumiRating_stimuli-test-chase_sleep.xlsx,SumiRating_stimuli-chase_sleep.xlsx,narrow_sleep_M2.wav,,w,sleep_M2.PNG,zü,M2,ava no zü ani,ava,bear,[W] Ku shi ani kea?; [P] Khu no zü cheni?,narrow,What's sleeping?,sleeping,Khu no zü ani?,The bear is sleeping.,None,1,None,0,0,0,0,,,,,,,,,,,,,0,23,23,23,,,,,,,,,p,0,0.685677347,,,,,2018_Apr_05_1108,59.92834394,rating_try1,1,1
SumiRating_stimuli-practice-chase_sleep.xlsx,SumiRating_stimuli-training-chase_sleep.xlsx,SumiRating_stimuli-test-chase_sleep.xlsx,SumiRating_stimuli-chase_sleep.xlsx,narrow_sleep_M4.wav,,w,sleep_M4.PNG,zü,M4,akhi no zü ani,akhi,bee,[W] Ku shi ani kea?; [P] Khu no zü cheni?,narrow,What's sleeping?,sleeping,Khu no zü ani?,The bee is sleeping.,None,1,None,0,0,0,0,,,,,,,,,,,,,0,24,24,24,,,,,,,,,p,0,0.335747516,,,,,2018_Apr_05_1108,59.92834394,rating_try1,1,1
SumiRating_stimuli-practice-chase_sleep.xlsx,SumiRating_stimuli-training-chase_sleep.xlsx,SumiRating_stimuli-test-chase_sleep.xlsx,SumiRating_stimuli-chase_sleep.xlsx,broad_chase_H2.wav,,p,chase_H2.PNG,ha,H2,akuhu no awo ha cheni,akuhu,gibbon,[W] Ku shi ani kea?; [P] Khu no ha cheni?,broad,What's happening?,chasing,Ku shi ani kea?,The gibbon is chasing the pig.,awo,1,pig,0,0,0,0,,,,,,,,,,,,,0,25,25,25,,,,,,,,,p,1,1.136010713,,,,,2018_Apr_05_1108,59.92834394,rating_try1,1,1
SumiRating_stimuli-practice-chase_sleep.xlsx,SumiRating_stimuli-training-chase_sleep.xlsx,SumiRating_stimuli-test-chase_sleep.xlsx,SumiRating_stimuli-chase_sleep.xlsx,narrow_sleep_M3.wav,,w,sleep_M3.PNG,zü,M3,ashe no zü ani,ashe,deer,[W] Ku shi ani kea?; [P] Khu no zü cheni?,narrow,What's sleeping?,sleeping,Khu no zü ani?,The deer is sleeping.,None,1,None,0,0,0,0,,,,,,,,,,,,,0,26,26,26,,,,,,,,,p,0,1.185178198,,,,,2018_Apr_05_1108,59.92834394,rating_try1,1,1
SumiRating_stimuli-practice-chase_sleep.xlsx,SumiRating_stimuli-training-chase_sleep.xlsx,SumiRating_stimuli-test-chase_sleep.xlsx,SumiRating_stimuli-chase_sleep.xlsx,narrow_sleep_L3.wav,,w,sleep_L3.PNG,zü,L3,amishi no zü ani,amishi,cow,[W] Ku shi ani kea?; [P] Khu no zü cheni?,narrow,What's sleeping?,sleeping,Khu no zü ani?,The cow is sleeping.,None,1,None,0,0,0,0,,,,,,,,,,,,,0,27,27,27,,,,,,,,,p,0,0.368997229,,,,,2018_Apr_05_1108,59.92834394,rating_try1,1,1
SumiRating_stimuli-practice-chase_sleep.xlsx,SumiRating_stimuli-training-chase_sleep.xlsx,SumiRating_stimuli-test-chase_sleep.xlsx,SumiRating_stimuli-chase_sleep.xlsx,narrow_sleep_H1.wav,,w,sleep_H1.PNG,zü,H1,ami no zü ani,ami,mosquito,[W] Ku shi ani kea?; [P] Khu no zü cheni?,narrow,What's sleeping?,sleeping,Khu no zü ani?,The mosquito is sleeping.,None,1,None,0,0,0,0,,,,,,,,,,,,,0,28,28,28,,,,,,,,,p,0,0.802637112,,,,,2018_Apr_05_1108,59.92834394,rating_try1,1,1
SumiRating_stimuli-practice-chase_sleep.xlsx,SumiRating_stimuli-training-chase_sleep.xlsx,SumiRating_stimuli-test-chase_sleep.xlsx,SumiRating_stimuli-chase_sleep.xlsx,narrow_chase_H3.wav,,w,chase_H3.PNG,ha,H3,awudu no agha ha cheni,awudu,rooster,[W] Ku shi ani kea?; [P] Khu no ha cheni?,narrow,What's chasing (the animal)?,chasing,Khu no ha cheni?,The rooster is chasing the crow.,agha,1,crow,0,0,0,0,,,,,,,,,,,,,0,29,29,29,,,,,,,,,w,1,0.502215585,,,,,2018_Apr_05_1108,59.92834394,rating_try1,1,1
SumiRating_stimuli-practice-chase_sleep.xlsx,SumiRating_stimuli-training-chase_sleep.xlsx,SumiRating_stimuli-test-chase_sleep.xlsx,SumiRating_stimuli-chase_sleep.xlsx,narrow_sleep_H2.wav,,w,sleep_H2.PNG,zü,H2,akuhu no zü ani,akuhu,gibbon,[W] Ku shi ani kea?; [P] Khu no zü cheni?,narrow,What's sleeping?,sleeping,Khu no zü ani?,The gibbon is sleeping.,None,1,None,0,0,0,0,,,,,,,,,,,,,0,30,30,30,,,,,,,,,p,0,0.45078882,,,,,2018_Apr_05_1108,59.92834394,rating_try1,1,1
SumiRating_stimuli-practice-chase_sleep.xlsx,SumiRating_stimuli-training-chase_sleep.xlsx,SumiRating_stimuli-test-chase_sleep.xlsx,SumiRating_stimuli-chase_sleep.xlsx,narrow_chase_M2.wav,,w,chase_M2.PNG,ha,M2,ava no amishi ha cheni,ava,bear,[W] Ku shi ani kea?; [P] Khu no ha cheni?,narrow,What's chasing (the animal)?,chasing,Khu no ha cheni?,The bear is chasing the cow.,amishi,1,cow,0,0,0,0,,,,,,,,,,,,,0,31,31,31,,,,,,,,,w,1,0.585081555,,,,,2018_Apr_05_1108,59.92834394,rating_try1,1,1
SumiRating_stimuli-practice-chase_sleep.xlsx,SumiRating_stimuli-training-chase_sleep.xlsx,SumiRating_stimuli-test-chase_sleep.xlsx,SumiRating_stimuli-chase_sleep.xlsx,narrow_chase_M3.wav,,w,chase_M3.PNG,ha,M3,ashe no awudu ha cheni,ashe,deer,[W] Ku shi ani kea?; [P] Khu no ha cheni?,narrow,What's chasing (the animal)?,chasing,Khu no ha cheni?,The deer is chasing the rooster.,awudu,1,rooster,0,0,0,0,,,,,,,,,,,,,0,32,32,32,,,,,,,,,w,1,0.402336903,,,,,2018_Apr_05_1108,59.92834394,rating_try1,1,1
SumiRating_stimuli-practice-chase_sleep.xlsx,SumiRating_stimuli-training-chase_sleep.xlsx,SumiRating_stimuli-test-chase_sleep.xlsx,SumiRating_stimuli-chase_sleep.xlsx,broad_chase_H1.wav,,p,chase_H1.PNG,ha,H1,ami no atsü ha cheni,ami,mosquito,[W] Ku shi ani kea?; [P] Khu no ha cheni?,broad,What's happening?,chasing,Ku shi ani kea?,The mosquito is chasing the dog.,atsü,1,dog,0,0,0,0,,,,,,,,,,,,,0,33,33,33,,,,,,,,,w,0,0.452178316,,,,,2018_Apr_05_1108,59.92834394,rating_try1,1,1
SumiRating_stimuli-practice-chase_sleep.xlsx,SumiRating_stimuli-training-chase_sleep.xlsx,SumiRating_stimuli-test-chase_sleep.xlsx,SumiRating_stimuli-chase_sleep.xlsx,narrow_chase_L3.wav,,w,chase_L3.PNG,ha,L3,amishi no ane ha cheni,amishi,cow,[W] Ku shi ani kea?; [P] Khu no ha cheni?,narrow,What's chasing (the animal)?,chasing,Khu no ha cheni?,The cow is chasing the goat.,ane,1,goat,0,0,0,0,,,,,,,,,,,,,0,34,34,34,,,,,,,,,w,1,0.419377888,,,,,2018_Apr_05_1108,59.92834394,rating_try1,1,1
SumiRating_stimuli-practice-chase_sleep.xlsx,SumiRating_stimuli-training-chase_sleep.xlsx,SumiRating_stimuli-test-chase_sleep.xlsx,SumiRating_stimuli-chase_sleep.xlsx,narrow_chase_M4.wav,,w,chase_M4.PNG,ha,M4,akhi no ami ha cheni,akhi,bee,[W] Ku shi ani kea?; [P] Khu no ha cheni?,narrow,What's chasing (the animal)?,chasing,Khu no ha cheni?,The bee is chasing the mosquito.,ami,1,mosquito,0,0,0,0,,,,,,,,,,,,,0,35,35,35,,,,,,,,,w,1,0.251376387,,,,,2018_Apr_05_1108,59.92834394,rating_try1,1,1
SumiRating_stimuli-practice-chase_sleep.xlsx,SumiRating_stimuli-training-chase_sleep.xlsx,SumiRating_stimuli-test-chase_sleep.xlsx,SumiRating_stimuli-chase_sleep.xlsx,narrow_chase_H1.wav,,w,chase_H1.PNG,ha,H1,ami no atsü ha cheni,ami,mosquito,[W] Ku shi ani kea?; [P] Khu no ha cheni?,narrow,What's chasing (the animal)?,chasing,Khu no ha cheni?,The mosquito is chasing the dog.,atsü,1,dog,0,0,0,0,,,,,,,,,,,,,0,36,36,36,,,,,,,,,w,1,0.369551897,,,,,2018_Apr_05_1108,59.92834394,rating_try1,1,1
SumiRating_stimuli-practice-chase_sleep.xlsx,SumiRating_stimuli-training-chase_sleep.xlsx,SumiRating_stimuli-test-chase_sleep.xlsx,SumiRating_stimuli-chase_sleep.xlsx,broad_sleep_L3.wav,,p,sleep_L3.PNG,zü,L3,amishi no zü ani,amishi,cow,[W] Ku shi ani kea?; [P] Khu no zü cheni?,broad,What's happening?,sleeping,Ku shi ani kea?,The cow is sleeping.,None,1,None,0,0,0,0,,,,,,,,,,,,,0,37,37,37,,,,,,,,,p,1,0.404033804,,,,,2018_Apr_05_1108,59.92834394,rating_try1,1,1
SumiRating_stimuli-practice-chase_sleep.xlsx,SumiRating_stimuli-training-chase_sleep.xlsx,SumiRating_stimuli-test-chase_sleep.xlsx,SumiRating_stimuli-chase_sleep.xlsx,broad_chase_M3.wav,,p,chase_M3.PNG,ha,M3,ashe no awudu ha cheni,ashe,deer,[W] Ku shi ani kea?; [P] Khu no ha cheni?,broad,What's happening?,chasing,Ku shi ani kea?,The deer is chasing the rooster.,awudu,1,rooster,0,0,0,0,,,,,,,,,,,,,0,38,38,38,,,,,,,,,w,0,0.434472141,,,,,2018_Apr_05_1108,59.92834394,rating_try1,1,1
SumiRating_stimuli-practice-chase_sleep.xlsx,SumiRating_stimuli-training-chase_sleep.xlsx,SumiRating_stimuli-test-chase_sleep.xlsx,SumiRating_stimuli-chase_sleep.xlsx,broad_sleep_M2.wav,,p,sleep_M2.PNG,zü,M2,ava no zü ani,ava,bear,[W] Ku shi ani kea?; [P] Khu no zü cheni?,broad,What's happening?,sleeping,Ku shi ani kea?,The bear is sleeping.,None,1,None,0,0,0,0,,,,,,,,,,,,,0,39,39,39,,,,,,,,,p,1,1.553953354,,,,,2018_Apr_05_1108,59.92834394,rating_try1,1,1
SumiRating_stimuli-practice-chase_sleep.xlsx,SumiRating_stimuli-training-chase_sleep.xlsx,SumiRating_stimuli-test-chase_sleep.xlsx,SumiRating_stimuli-chase_sleep.xlsx,broad_chase_M1.wav,,p,chase_M1.PNG,ha,M1,avi no atsü ha cheni,avi,mithun,[W] Ku shi ani kea?; [P] Khu no ha cheni?,broad,What's happening?,chasing,Ku shi ani kea?,The mithun is chasing the dog.,atsü,1,dog,0,0,0,0,,,,,,,,,,,,,0,40,40,40,,,,,,,,,w,0,1.603727427,,,,,2018_Apr_05_1108,59.92834394,rating_try1,1,1
SumiRating_stimuli-practice-chase_sleep.xlsx,SumiRating_stimuli-training-chase_sleep.xlsx,SumiRating_stimuli-test-chase_sleep.xlsx,SumiRating_stimuli-chase_sleep.xlsx,broad_sleep_H1.wav,,p,sleep_H1.PNG,zü,H1,ami no zü ani,ami,mosquito,[W] Ku shi ani kea?; [P] Khu no zü cheni?,broad,What's happening?,sleeping,Ku shi ani kea?,The mosquito is sleeping.,None,1,None,0,0,0,0,,,,,,,,,,,,,0,41,41,41,,,,,,,,,p,1,9.078819828,,,,,2018_Apr_05_1108,59.92834394,rating_try1,1,1
SumiRating_stimuli-practice-chase_sleep.xlsx,SumiRating_stimuli-training-chase_sleep.xlsx,SumiRating_stimuli-test-chase_sleep.xlsx,SumiRating_stimuli-chase_sleep.xlsx,broad_chase_H3.wav,,p,chase_H3.PNG,ha,H3,awudu no agha ha cheni,awudu,rooster,[W] Ku shi ani kea?; [P] Khu no ha cheni?,broad,What's happening?,chasing,Ku shi ani kea?,The rooster is chasing the crow.,agha,1,crow,0,0,0,0,,,,,,,,,,,,,0,42,42,42,,,,,,,,,p,1,7.776950203,,,,,2018_Apr_05_1108,59.92834394,rating_try1,1,1
SumiRating_stimuli-practice-chase_sleep.xlsx,SumiRating_stimuli-training-chase_sleep.xlsx,SumiRating_stimuli-test-chase_sleep.xlsx,SumiRating_stimuli-chase_sleep.xlsx,broad_chase_H4.wav,,p,chase_H4.PNG,ha,H4,apighi no amishi ha cheni,apighi,snake,[W] Ku shi ani kea?; [P] Khu no ha cheni?,broad,What's happening?,chasing,Ku shi ani kea?,The snake is chasing the cow.,amishi,1,cow,0,0,0,0,,,,,,,,,,,,,0,43,43,43,,,,,,,,,p,1,5.641211427,,,,,2018_Apr_05_1108,59.92834394,rating_try1,1,1
SumiRating_stimuli-practice-chase_sleep.xlsx,SumiRating_stimuli-training-chase_sleep.xlsx,SumiRating_stimuli-test-chase_sleep.xlsx,SumiRating_stimuli-chase_sleep.xlsx,narrow_chase_L2.wav,,w,chase_L2.PNG,ha,L2,atsü no ane ha cheni,atsü,dog,[W] Ku shi ani kea?; [P] Khu no ha cheni?,narrow,What's chasing (the animal)?,chasing,Khu no ha cheni?,The dog is chasing the goat.,ane,1,goat,0,0,0,0,,,,,,,,,,,,,0,44,44,44,,,,,,,,,p,0,1.152761257,,,,,2018_Apr_05_1108,59.92834394,rating_try1,1,1
SumiRating_stimuli-practice-chase_sleep.xlsx,SumiRating_stimuli-training-chase_sleep.xlsx,SumiRating_stimuli-test-chase_sleep.xlsx,SumiRating_stimuli-chase_sleep.xlsx,narrow_chase_M1.wav,,w,chase_M1.PNG,ha,M1,avi no atsü ha cheni,avi,mithun,[W] Ku shi ani kea?; [P] Khu no ha cheni?,narrow,What's chasing (the animal)?,chasing,Khu no ha cheni?,The mithun is chasing the dog.,atsü,1,dog,0,0,0,0,,,,,,,,,,,,,0,45,45,45,,,,,,,,,p,0,0.385010101,,,,,2018_Apr_05_1108,59.92834394,rating_try1,1,1
SumiRating_stimuli-practice-chase_sleep.xlsx,SumiRating_stimuli-training-chase_sleep.xlsx,SumiRating_stimuli-test-chase_sleep.xlsx,SumiRating_stimuli-chase_sleep.xlsx,narrow_sleep_L1.wav,,w,sleep_L1.PNG,zü,L1,awo no zü ani,awo,pig,[W] Ku shi ani kea?; [P] Khu no ha cheni?,narrow,What's sleeping?,sleeping,Khu no zü ani?,The pig is sleeping.,None,1,None,0,0,0,0,,,,,,,,,,,,,0,46,46,46,,,,,,,,,p,0,0.902613465,,,,,2018_Apr_05_1108,59.92834394,rating_try1,1,1
SumiRating_stimuli-practice-chase_sleep.xlsx,SumiRating_stimuli-training-chase_sleep.xlsx,SumiRating_stimuli-test-chase_sleep.xlsx,SumiRating_stimuli-chase_sleep.xlsx,broad_sleep_L4.wav,,p,sleep_L4.PNG,zü,L4,ane no zü ani,ane,goat,[W] Ku shi ani kea?; [P] Khu no zü cheni?,broad,What's happening?,sleeping,Ku shi ani kea?,The goat is sleeping.,None,1,None,0,0,0,0,,,,,,,,,,,,,0,47,47,47,,,,,,,,,p,1,0.936062633,,,,,2018_Apr_05_1108,59.92834394,rating_try1,1,1
SumiRating_stimuli-practice-bigger.xlsx,SumiRating_stimuli-training-bigger.xlsx,SumiRating_stimuli-test-bigger.xlsx,SumiRating_stimuli-bigger.xlsx,narrow_big_H2.wav,,w,big_H2.PNG,akijeu,H2,akuhu no akijeu,akuhu,gibbon,[W] Ku shi ani kea?; [P] Khiu no akijeu?,narrow,Which one is bigger?,bigger,Khiu no akijeu kea?,The gibbon is bigger.,atsü,1,dog,0,1,1,1,,,,,,,,,,,,,0,0,0,0,,,,,,,,,w,1,2.204215267,,,,,2018_Apr_05_1108,59.92834394,rating_try1,1,1
SumiRating_stimuli-practice-bigger.xlsx,SumiRating_stimuli-training-bigger.xlsx,SumiRating_stimuli-test-bigger.xlsx,SumiRating_stimuli-bigger.xlsx,narrow_big_H3.wav,,w,big_H3.PNG,akijeu,H3,awudu no akijeu,awudu,rooster,[W] Ku shi ani kea?; [P] Khiu no akijeu?,narrow,Which one is bigger?,bigger,Khiu no akijeu kea?,The rooster is bigger.,agha,1,crow,0,1,1,1,,,,,,,,,,,,,0,1,1,1,,,,,,,,,w,1,0.70258365,,,,,2018_Apr_05_1108,59.92834394,rating_try1,1,1
SumiRating_stimuli-practice-bigger.xlsx,SumiRating_stimuli-training-bigger.xlsx,SumiRating_stimuli-test-bigger.xlsx,SumiRating_stimuli-bigger.xlsx,narrow_big_H4.wav,,w,big_H4.PNG,akijeu,H4,apighi no akijeu,apighi,snake,[W] Ku shi ani kea?; [P] Khiu no akijeu?,narrow,Which one is bigger?,bigger,Khiu no akijeu kea?,The snake is bigger.,akhosa,1,cat,0,1,1,1,,,,,,,,,,,,,0,2,2,2,,,,,,,,,w,1,2.186904915,,,,,2018_Apr_05_1108,59.92834394,rating_try1,1,1
SumiRating_stimuli-practice-bigger.xlsx,SumiRating_stimuli-training-bigger.xlsx,SumiRating_stimuli-test-bigger.xlsx,SumiRating_stimuli-bigger.xlsx,narrow_big_L4.wav,,w,big_L4.PNG,akijeu,L4,ane no akijeu,ane,goat,[W] Ku shi ani kea?; [P] Khiu no akijeu?,narrow,Which one is bigger?,bigger,Khiu no akijeu kea?,The goat is bigger.,ashe,1,deer,0,1,1,1,,,,,,,,,,,,,0,3,3,3,,,,,,,,,w,1,0.652317111,,,,,2018_Apr_05_1108,59.92834394,rating_try1,1,1
SumiRating_stimuli-practice-bigger.xlsx,SumiRating_stimuli-training-bigger.xlsx,SumiRating_stimuli-test-bigger.xlsx,SumiRating_stimuli-bigger.xlsx,narrow_big_M3.wav,,w,big_M3.PNG,akijeu,M3,ashe no akijeu,ashe,deer,[W] Ku shi ani kea?; [P] Khiu no akijeu?,narrow,Which one is bigger?,bigger,Khiu no akijeu kea?,The deer is bigger.,awudu,1,rooster,0,1,1,1,,,,,,,,,,,,,0,4,4,4,,,,,,,,,w,1,0.402175489,,,,,2018_Apr_05_1108,59.92834394,rating_try1,1,1
SumiRating_stimuli-practice-bigger.xlsx,SumiRating_stimuli-training-bigger.xlsx,SumiRating_stimuli-test-bigger.xlsx,SumiRating_stimuli-bigger.xlsx,narrow_big_H1.wav,,w,big_H1.PNG,akijeu,H1,ami no akijeu,ami,mosquito,[W] Ku shi ani kea?; [P] Khiu no akijeu?,narrow,Which one is bigger?,bigger,Khiu no akijeu kea?,The mosquito is bigger.,akhi,1,bee,0,1,1,1,,,,,,,,,,,,,0,5,5,5,,,,,,,,,w,1,0.985807403,,,,,2018_Apr_05_1108,59.92834394,rating_try1,1,1
SumiRating_stimuli-practice-bigger.xlsx,SumiRating_stimuli-training-bigger.xlsx,SumiRating_stimuli-test-bigger.xlsx,SumiRating_stimuli-bigger.xlsx,narrow_big_M2.wav,,w,big_M2.PNG,akijeu,M2,ava no akijeu,ava,bear,[W] Ku shi ani kea?; [P] Khiu no akijeu?,narrow,Which one is bigger?,bigger,Khiu no akijeu kea?,The bear is bigger.,amishi,1,cow,0,1,1,1,,,,,,,,,,,,,0,6,6,6,,,,,,,,,w,1,0.535537781,,,,,2018_Apr_05_1108,59.92834394,rating_try1,1,1
SumiRating_stimuli-practice-bigger.xlsx,SumiRating_stimuli-training-bigger.xlsx,SumiRating_stimuli-test-bigger.xlsx,SumiRating_stimuli-bigger.xlsx,narrow_big_L2.wav,,w,big_L2.PNG,akijeu,L2,atsü no akijeu,atsü,dog,[W] Ku shi ani kea?; [P] Khiu no akijeu?,narrow,Which one is bigger?,bigger,Khiu no akijeu kea?,The dog is bigger.,apighi,1,snake,0,1,1,1,,,,,,,,,,,,,0,7,7,7,,,,,,,,,w,1,0.385140158,,,,,2018_Apr_05_1108,59.92834394,rating_try1,1,1
SumiRating_stimuli-practice-bigger.xlsx,SumiRating_stimuli-training-bigger.xlsx,SumiRating_stimuli-test-bigger.xlsx,SumiRating_stimuli-bigger.xlsx,narrow_big_L3.wav,,w,big_L3.PNG,akijeu,L3,amishi no akijeu,amishi,cow,[W] Ku shi ani kea?; [P] Khiu no akijeu?,narrow,Which one is bigger?,bigger,Khiu no akijeu kea?,The cow is bigger.,awo,1,pig,0,1,1,1,,,,,,,,,,,,,0,8,8,8,,,,,,,,,w,1,0.486497268,,,,,2018_Apr_05_1108,59.92834394,rating_try1,1,1
SumiRating_stimuli-practice-bigger.xlsx,SumiRating_stimuli-training-bigger.xlsx,SumiRating_stimuli-test-bigger.xlsx,SumiRating_stimuli-bigger.xlsx,narrow_big_M4.wav,,w,big_M4.PNG,akijeu,M4,akhi no akijeu,akhi,bee,[W] Ku shi ani kea?; [P] Khiu no akijeu?,narrow,Which one is bigger?,bigger,Khiu no akijeu kea?,The bee is bigger.,ami,1,mosquito,0,1,1,1,,,,,,,,,,,,,0,9,9,9,,,,,,,,,w,1,1.086298328,,,,,2018_Apr_05_1108,59.92834394,rating_try1,1,1
SumiRating_stimuli-practice-bigger.xlsx,SumiRating_stimuli-training-bigger.xlsx,SumiRating_stimuli-test-bigger.xlsx,SumiRating_stimuli-bigger.xlsx,narrow_big_M1.wav,,w,big_M1.PNG,akijeu,M1,avi no akijeu,avi,mithun,[W] Ku shi ani kea?; [P] Khiu no akijeu?,narrow,Which one is bigger?,bigger,Khiu no akijeu kea?,The mithun is bigger.,ane,1,goat,0,1,1,1,,,,,,,,,,,,,0,10,10,10,,,,,,,,,w,1,1.504000391,,,,,2018_Apr_05_1108,59.92834394,rating_try1,1,1
SumiRating_stimuli-practice-bigger.xlsx,SumiRating_stimuli-training-bigger.xlsx,SumiRating_stimuli-test-bigger.xlsx,SumiRating_stimuli-bigger.xlsx,narrow_big_L1.wav,,w,big_L1.PNG,akijeu,L1,awo no akijeu,awo,pig,[W] Ku shi ani kea?; [P] Khu no zü cheni?,narrow,Which one is bigger?,bigger,Khiu no akijeu kea?,The pig is bigger.,akuhu,1,gibbon,0,1,1,1,,,,,,,,,,,,,0,11,11,11,,,,,,,,,w,1,0.585785299,,,,,2018_Apr_05_1108,59.92834394,rating_try1,1,1
SumiRating_stimuli-practice-chase_sleep.xlsx,SumiRating_stimuli-training-chase_sleep.xlsx,SumiRating_stimuli-test-chase_sleep.xlsx,SumiRating_stimuli-chase_sleep.xlsx,broad_chase_L2.wav,,p,chase_L2.PNG,ha,L2,atsü no ane ha cheni,atsü,dog,[W] Ku shi ani kea?; [P] Khu no ha cheni?,broad,What's happening?,chasing,Ku shi ani kea?,The dog is chasing the goat.,ane,1,goat,0,0,0,0,,,,,,,,,,,,,0,0,0,0,,,,,,,,,p,1,10.84666391,,,,,2018_Apr_16_1331,59.87666481,rating_try1,1,2
SumiRating_stimuli-practice-chase_sleep.xlsx,SumiRating_stimuli-training-chase_sleep.xlsx,SumiRating_stimuli-test-chase_sleep.xlsx,SumiRating_stimuli-chase_sleep.xlsx,narrow_chase_L1.wav,,w,chase_L1.PNG,ha,L1,awo no awudu ha cheni,awo,pig,[W] Ku shi ani kea?; [P] Khu no ha cheni?,narrow,What's chasing (the animal)?,chasing,Khu no ha cheni?,The pig is chasing the rooster.,awudu,1,rooster,0,0,0,0,,,,,,,,,,,,,0,1,1,1,,,,,,,,,p,0,5.19021341,,,,,2018_Apr_16_1331,59.87666481,rating_try1,1,2
SumiRating_stimuli-practice-chase_sleep.xlsx,SumiRating_stimuli-training-chase_sleep.xlsx,SumiRating_stimuli-test-chase_sleep.xlsx,SumiRating_stimuli-chase_sleep.xlsx,broad_sleep_L2.wav,,p,sleep_L2.PNG,zü,L2,atsü no zü ani,atsü,dog,[W] Ku shi ani kea?; [P] Khu no zü cheni?,broad,What's happening?,sleeping,Ku shi ani kea?,The dog is sleeping.,None,1,None,0,0,0,0,,,,,,,,,,,,,0,2,2,2,,,,,,,,,p,1,5.373770315,,,,,2018_Apr_16_1331,59.87666481,rating_try1,1,2
SumiRating_stimuli-practice-chase_sleep.xlsx,SumiRating_stimuli-training-chase_sleep.xlsx,SumiRating_stimuli-test-chase_sleep.xlsx,SumiRating_stimuli-chase_sleep.xlsx,narrow_sleep_M1.wav,,w,sleep_M1.PNG,zü,M1,avi no zü ani,avi,mithun,[W] Ku shi ani kea?; [P] Khu no zü cheni?,narrow,What's sleeping?,sleeping,Khu no zü ani?,The mithun is sleeping.,None,1,None,0,0,0,0,,,,,,,,,,,,,0,3,3,3,,,,,,,,,p,0,3.186435102,,,,,2018_Apr_16_1331,59.87666481,rating_try1,1,2
SumiRating_stimuli-practice-chase_sleep.xlsx,SumiRating_stimuli-training-chase_sleep.xlsx,SumiRating_stimuli-test-chase_sleep.xlsx,SumiRating_stimuli-chase_sleep.xlsx,narrow_chase_H2.wav,,w,chase_H2.PNG,ha,H2,akuhu no awo ha cheni,akuhu,gibbon,[W] Ku shi ani kea?; [P] Khu no ha cheni?,narrow,What's chasing (the animal)?,chasing,Khu no ha cheni?,The gibbon is chasing the pig.,awo,1,pig,0,0,0,0,,,,,,,,,,,,,0,4,4,4,,,,,,,,,p,0,5.441117762,,,,,2018_Apr_16_1331,59.87666481,rating_try1,1,2
SumiRating_stimuli-practice-chase_sleep.xlsx,SumiRating_stimuli-training-chase_sleep.xlsx,SumiRating_stimuli-test-chase_sleep.xlsx,SumiRating_stimuli-chase_sleep.xlsx,narrow_sleep_H3.wav,,w,sleep_H3.PNG,zü,H3,awudu no zü ani,awudu,rooster,[W] Ku shi ani kea?; [P] Khu no zü cheni?,narrow,What's sleeping?,sleeping,Khu no zü ani?,The rooster is sleeping.,None,1,None,0,0,0,0,,,,,,,,,,,,,0,5,5,5,,,,,,,,,p,0,3.689107934,,,,,2018_Apr_16_1331,59.87666481,rating_try1,1,2
SumiRating_stimuli-practice-chase_sleep.xlsx,SumiRating_stimuli-training-chase_sleep.xlsx,SumiRating_stimuli-test-chase_sleep.xlsx,SumiRating_stimuli-chase_sleep.xlsx,narrow_sleep_L4.wav,,w,sleep_L4.PNG,zü,L4,ane no zü ani,ane,goat,[W] Ku shi ani kea?; [P] Khu no zü cheni?,narrow,What's sleeping?,sleeping,Khu no zü ani?,The goat is sleeping.,None,1,None,0,0,0,0,,,,,,,,,,,,,0,6,6,6,,,,,,,,,p,0,4.190280237,,,,,2018_Apr_16_1331,59.87666481,rating_try1,1,2
SumiRating_stimuli-practice-chase_sleep.xlsx,SumiRating_stimuli-training-chase_sleep.xlsx,SumiRating_stimuli-test-chase_sleep.xlsx,SumiRating_stimuli-chase_sleep.xlsx,broad_sleep_M3.wav,,p,sleep_M3.PNG,zü,M3,ashe no zü ani,ashe,deer,[W] Ku shi ani kea?; [P] Khu no zü cheni?,broad,What's happening?,sleeping,Ku shi ani kea?,The deer is sleeping.,None,1,None,0,0,0,0,,,,,,,,,,,,,0,7,7,7,,,,,,,,,p,1,3.288894601,,,,,2018_Apr_16_1331,59.87666481,rating_try1,1,2
SumiRating_stimuli-practice-chase_sleep.xlsx,SumiRating_stimuli-training-chase_sleep.xlsx,SumiRating_stimuli-test-chase_sleep.xlsx,SumiRating_stimuli-chase_sleep.xlsx,broad_sleep_L1.wav,,p,sleep_L1.PNG,zü,L1,awo no zü ani,awo,pig,[W] Ku shi ani kea?; [P] Khu no zü cheni?,broad,What's happening?,sleeping,Ku shi ani kea?,The pig is sleeping.,None,1,None,0,0,0,0,,,,,,,,,,,,,0,8,8,8,,,,,,,,,p,1,4.072131249,,,,,2018_Apr_16_1331,59.87666481,rating_try1,1,2
SumiRating_stimuli-practice-chase_sleep.xlsx,SumiRating_stimuli-training-chase_sleep.xlsx,SumiRating_stimuli-test-chase_sleep.xlsx,SumiRating_stimuli-chase_sleep.xlsx,broad_chase_M2.wav,,p,chase_M2.PNG,ha,M2,ava no amishi ha cheni,ava,bear,[W] Ku shi ani kea?; [P] Khu no ha cheni?,broad,What's happening?,chasing,Ku shi ani kea?,The bear is chasing the cow.,amishi,1,cow,0,0,0,0,,,,,,,,,,,,,0,9,9,9,,,,,,,,,p,1,6.709326253,,,,,2018_Apr_16_1331,59.87666481,rating_try1,1,2
SumiRating_stimuli-practice-chase_sleep.xlsx,SumiRating_stimuli-training-chase_sleep.xlsx,SumiRating_stimuli-test-chase_sleep.xlsx,SumiRating_stimuli-chase_sleep.xlsx,broad_sleep_M4.wav,,p,sleep_M4.PNG,zü,M4,akhi no zü ani,akhi,bee,[W] Ku shi ani kea?; [P] Khu no zü cheni?,broad,What's happening?,sleeping,Ku shi ani kea?,The bee is sleeping.,None,1,None,0,0,0,0,,,,,,,,,,,,,0,10,10,10,,,,,,,,,p,1,8.49372004,,,,,2018_Apr_16_1331,59.87666481,rating_try1,1,2
SumiRating_stimuli-practice-chase_sleep.xlsx,SumiRating_stimuli-training-chase_sleep.xlsx,SumiRating_stimuli-test-chase_sleep.xlsx,SumiRating_stimuli-chase_sleep.xlsx,broad_chase_L4.wav,,p,chase_L4.PNG,ha,L4,ane no awo ha cheni,ane,goat,[W] Ku shi ani kea?; [P] Khu no ha cheni?,broad,What's happening?,chasing,Ku shi ani kea?,The goat is chasing the pig.,awo,1,pig,0,0,0,0,,,,,,,,,,,,,0,11,11,11,,,,,,,,,p,1,11.99834628,,,,,2018_Apr_16_1331,59.87666481,rating_try1,1,2
SumiRating_stimuli-practice-chase_sleep.xlsx,SumiRating_stimuli-training-chase_sleep.xlsx,SumiRating_stimuli-test-chase_sleep.xlsx,SumiRating_stimuli-chase_sleep.xlsx,narrow_chase_H4.wav,,w,chase_H4.PNG,ha,H4,apighi no amishi ha cheni,apighi,snake,[W] Ku shi ani kea?; [P] Khu no ha cheni?,narrow,What's chasing (the animal)?,chasing,Khu no ha cheni?,The snake is chasing the cow.,amishi,1,cow,0,0,0,0,,,,,,,,,,,,,0,12,12,12,,,,,,,,,p,0,21.42549099,,,,,2018_Apr_16_1331,59.87666481,rating_try1,1,2
SumiRating_stimuli-practice-chase_sleep.xlsx,SumiRating_stimuli-training-chase_sleep.xlsx,SumiRating_stimuli-test-chase_sleep.xlsx,SumiRating_stimuli-chase_sleep.xlsx,broad_chase_M4.wav,,p,chase_M4.PNG,ha,M4,akhi no ami ha cheni,akhi,bee,[W] Ku shi ani kea?; [P] Khu no ha cheni?,broad,What's happening?,chasing,Ku shi ani kea?,The bee is chasing the mosquito.,ami,1,mosquito,0,0,0,0,,,,,,,,,,,,,0,13,13,13,,,,,,,,,w,0,41.1137168,,,,,2018_Apr_16_1331,59.87666481,rating_try1,1,2
SumiRating_stimuli-practice-chase_sleep.xlsx,SumiRating_stimuli-training-chase_sleep.xlsx,SumiRating_stimuli-test-chase_sleep.xlsx,SumiRating_stimuli-chase_sleep.xlsx,narrow_sleep_H4.wav,,w,sleep_H4.PNG,zü,H4,apighi no zü ani,apighi,snake,[W] Ku shi ani kea?; [P] Khu no zü cheni?,narrow,What's sleeping?,sleeping,Khu no zü ani?,The snake is sleeping.,None,1,None,0,0,0,0,,,,,,,,,,,,,0,14,14,14,,,,,,,,,p,0,62.37008505,,,,,2018_Apr_16_1331,59.87666481,rating_try1,1,2
SumiRating_stimuli-practice-chase_sleep.xlsx,SumiRating_stimuli-training-chase_sleep.xlsx,SumiRating_stimuli-test-chase_sleep.xlsx,SumiRating_stimuli-chase_sleep.xlsx,narrow_sleep_L2.wav,,w,sleep_L2.PNG,zü,L2,atsü no zü ani,atsü,dog,[W] Ku shi ani kea?; [P] Khu no zü cheni?,narrow,What's sleeping?,sleeping,Khu no zü ani?,The dog is sleeping.,None,1,None,0,0,0,0,,,,,,,,,,,,,0,15,15,15,,,,,,,,,w,1,13.46658202,,,,,2018_Apr_16_1331,59.87666481,rating_try1,1,2
SumiRating_stimuli-practice-chase_sleep.xlsx,SumiRating_stimuli-training-chase_sleep.xlsx,SumiRating_stimuli-test-chase_sleep.xlsx,SumiRating_stimuli-chase_sleep.xlsx,broad_sleep_M1.wav,,p,sleep_M1.PNG,zü,M1,avi no zü ani,avi,mithun,[W] Ku shi ani kea?; [P] Khu no zü cheni?,broad,What's happening?,sleeping,Ku shi ani kea?,The mithun is sleeping.,None,1,None,0,0,0,0,,,,,,,,,,,,,0,16,16,16,,,,,,,,,p,1,59.04978834,,,,,2018_Apr_16_1331,59.87666481,rating_try1,1,2
SumiRating_stimuli-practice-chase_sleep.xlsx,SumiRating_stimuli-training-chase_sleep.xlsx,SumiRating_stimuli-test-chase_sleep.xlsx,SumiRating_stimuli-chase_sleep.xlsx,broad_chase_L1.wav,,p,chase_L1.PNG,ha,L1,awo no awudu ha cheni,awo,pig,[W] Ku shi ani kea?; [P] Khu no ha cheni?,broad,What's happening?,chasing,Ku shi ani kea?,The pig is chasing the rooster.,awudu,1,rooster,0,0,0,0,,,,,,,,,,,,,0,17,17,17,,,,,,,,,w,0,68.47624112,,,,,2018_Apr_16_1331,59.87666481,rating_try1,1,2
SumiRating_stimuli-practice-chase_sleep.xlsx,SumiRating_stimuli-training-chase_sleep.xlsx,SumiRating_stimuli-test-chase_sleep.xlsx,SumiRating_stimuli-chase_sleep.xlsx,narrow_chase_L4.wav,,w,chase_L4.PNG,ha,L4,ane no awo ha cheni,ane,goat,[W] Ku shi ani kea?; [P] Khu no ha cheni?,narrow,What's chasing (the animal)?,chasing,Khu no ha cheni?,The goat is chasing the pig.,awo,1,pig,0,0,0,0,,,,,,,,,,,,,0,18,18,18,,,,,,,,,w,1,36.94288534,,,,,2018_Apr_16_1331,59.87666481,rating_try1,1,2
SumiRating_stimuli-practice-chase_sleep.xlsx,SumiRating_stimuli-training-chase_sleep.xlsx,SumiRating_stimuli-test-chase_sleep.xlsx,SumiRating_stimuli-chase_sleep.xlsx,broad_sleep_H4.wav,,p,sleep_H4.PNG,zü,H4,apighi no zü ani,apighi,snake,[W] Ku shi ani kea?; [P] Khu no zü cheni?,broad,What's happening?,sleeping,Ku shi ani kea?,The snake is sleeping.,None,1,None,0,0,0,0,,,,,,,,,,,,,0,19,19,19,,,,,,,,,p,1,8.81137862,,,,,2018_Apr_16_1331,59.87666481,rating_try1,1,2
SumiRating_stimuli-practice-chase_sleep.xlsx,SumiRating_stimuli-training-chase_sleep.xlsx,SumiRating_stimuli-test-chase_sleep.xlsx,SumiRating_stimuli-chase_sleep.xlsx,broad_chase_L3.wav,,p,chase_L3.PNG,ha,L3,amishi no ane ha cheni,amishi,cow,[W] Ku shi ani kea?; [P] Khu no ha cheni?,broad,What's happening?,chasing,Ku shi ani kea?,The cow is chasing the goat.,ane,1,goat,0,0,0,0,,,,,,,,,,,,,0,20,20,20,,,,,,,,,p,1,26.71400262,,,,,2018_Apr_16_1331,59.87666481,rating_try1,1,2
SumiRating_stimuli-practice-chase_sleep.xlsx,SumiRating_stimuli-training-chase_sleep.xlsx,SumiRating_stimuli-test-chase_sleep.xlsx,SumiRating_stimuli-chase_sleep.xlsx,broad_sleep_H2.wav,,p,sleep_H2.PNG,zü,H2,akuhu no zü ani,akuhu,gibbon,[W] Ku shi ani kea?; [P] Khu no zü cheni?,broad,What's happening?,sleeping,Ku shi ani kea?,The gibbon is sleeping.,None,1,None,0,0,0,0,,,,,,,,,,,,,0,21,21,21,,,,,,,,,w,0,10.39641035,,,,,2018_Apr_16_1331,59.87666481,rating_try1,1,2
SumiRating_stimuli-practice-chase_sleep.xlsx,SumiRating_stimuli-training-chase_sleep.xlsx,SumiRating_stimuli-test-chase_sleep.xlsx,SumiRating_stimuli-chase_sleep.xlsx,broad_sleep_H3.wav,,p,sleep_H3.PNG,zü,H3,awudu no zü ani,awudu,rooster,[W] Ku shi ani kea?; [P] Khu no zü cheni?,broad,What's happening?,sleeping,Ku shi ani kea?,The rooster is sleeping.,None,1,None,0,0,0,0,,,,,,,,,,,,,0,22,22,22,,,,,,,,,w,0,12.63241223,,,,,2018_Apr_16_1331,59.87666481,rating_try1,1,2
SumiRating_stimuli-practice-chase_sleep.xlsx,SumiRating_stimuli-training-chase_sleep.xlsx,SumiRating_stimuli-test-chase_sleep.xlsx,SumiRating_stimuli-chase_sleep.xlsx,narrow_sleep_M2.wav,,w,sleep_M2.PNG,zü,M2,ava no zü ani,ava,bear,[W] Ku shi ani kea?; [P] Khu no zü cheni?,narrow,What's sleeping?,sleeping,Khu no zü ani?,The bear is sleeping.,None,1,None,0,0,0,0,,,,,,,,,,,,,0,23,23,23,,,,,,,,,w,1,21.94204281,,,,,2018_Apr_16_1331,59.87666481,rating_try1,1,2
SumiRating_stimuli-practice-chase_sleep.xlsx,SumiRating_stimuli-training-chase_sleep.xlsx,SumiRating_stimuli-test-chase_sleep.xlsx,SumiRating_stimuli-chase_sleep.xlsx,narrow_sleep_M4.wav,,w,sleep_M4.PNG,zü,M4,akhi no zü ani,akhi,bee,[W] Ku shi ani kea?; [P] Khu no zü cheni?,narrow,What's sleeping?,sleeping,Khu no zü ani?,The bee is sleeping.,None,1,None,0,0,0,0,,,,,,,,,,,,,0,24,24,24,,,,,,,,,w,1,47.93613631,,,,,2018_Apr_16_1331,59.87666481,rating_try1,1,2
SumiRating_stimuli-practice-chase_sleep.xlsx,SumiRating_stimuli-training-chase_sleep.xlsx,SumiRating_stimuli-test-chase_sleep.xlsx,SumiRating_stimuli-chase_sleep.xlsx,broad_chase_H2.wav,,p,chase_H2.PNG,ha,H2,akuhu no awo ha cheni,akuhu,gibbon,[W] Ku shi ani kea?; [P] Khu no ha cheni?,broad,What's happening?,chasing,Ku shi ani kea?,The gibbon is chasing the pig.,awo,1,pig,0,0,0,0,,,,,,,,,,,,,0,25,25,25,,,,,,,,,w,0,55.72923305,,,,,2018_Apr_16_1331,59.87666481,rating_try1,1,2
SumiRating_stimuli-practice-chase_sleep.xlsx,SumiRating_stimuli-training-chase_sleep.xlsx,SumiRating_stimuli-test-chase_sleep.xlsx,SumiRating_stimuli-chase_sleep.xlsx,narrow_sleep_M3.wav,,w,sleep_M3.PNG,zü,M3,ashe no zü ani,ashe,deer,[W] Ku shi ani kea?; [P] Khu no zü cheni?,narrow,What's sleeping?,sleeping,Khu no zü ani?,The deer is sleeping.,None,1,None,0,0,0,0,,,,,,,,,,,,,0,26,26,26,,,,,,,,,p,0,8.510719344,,,,,2018_Apr_16_1331,59.87666481,rating_try1,1,2
SumiRating_stimuli-practice-chase_sleep.xlsx,SumiRating_stimuli-training-chase_sleep.xlsx,SumiRating_stimuli-test-chase_sleep.xlsx,SumiRating_stimuli-chase_sleep.xlsx,narrow_sleep_L3.wav,,w,sleep_L3.PNG,zü,L3,amishi no zü ani,amishi,cow,[W] Ku shi ani kea?; [P] Khu no zü cheni?,narrow,What's sleeping?,sleeping,Khu no zü ani?,The cow is sleeping.,None,1,None,0,0,0,0,,,,,,,,,,,,,0,27,27,27,,,,,,,,,p,0,12.04919923,,,,,2018_Apr_16_1331,59.87666481,rating_try1,1,2
SumiRating_stimuli-practice-chase_sleep.xlsx,SumiRating_stimuli-training-chase_sleep.xlsx,SumiRating_stimuli-test-chase_sleep.xlsx,SumiRating_stimuli-chase_sleep.xlsx,narrow_sleep_H1.wav,,w,sleep_H1.PNG,zü,H1,ami no zü ani,ami,mosquito,[W] Ku shi ani kea?; [P] Khu no zü cheni?,narrow,What's sleeping?,sleeping,Khu no zü ani?,The mosquito is sleeping.,None,1,None,0,0,0,0,,,,,,,,,,,,,0,28,28,28,,,,,,,,,w,1,38.44402063,,,,,2018_Apr_16_1331,59.87666481,rating_try1,1,2
SumiRating_stimuli-practice-chase_sleep.xlsx,SumiRating_stimuli-training-chase_sleep.xlsx,SumiRating_stimuli-test-chase_sleep.xlsx,SumiRating_stimuli-chase_sleep.xlsx,narrow_chase_H3.wav,,w,chase_H3.PNG,ha,H3,awudu no agha ha cheni,awudu,rooster,[W] Ku shi ani kea?; [P] Khu no ha cheni?,narrow,What's chasing (the animal)?,chasing,Khu no ha cheni?,The rooster is chasing the crow.,agha,1,crow,0,0,0,0,,,,,,,,,,,,,0,29,29,29,,,,,,,,,p,0,26.48034174,,,,,2018_Apr_16_1331,59.87666481,rating_try1,1,2
SumiRating_stimuli-practice-chase_sleep.xlsx,SumiRating_stimuli-training-chase_sleep.xlsx,SumiRating_stimuli-test-chase_sleep.xlsx,SumiRating_stimuli-chase_sleep.xlsx,narrow_sleep_H2.wav,,w,sleep_H2.PNG,zü,H2,akuhu no zü ani,akuhu,gibbon,[W] Ku shi ani kea?; [P] Khu no zü cheni?,narrow,What's sleeping?,sleeping,Khu no zü ani?,The gibbon is sleeping.,None,1,None,0,0,0,0,,,,,,,,,,,,,0,30,30,30,,,,,,,,,p,0,9.945949114,,,,,2018_Apr_16_1331,59.87666481,rating_try1,1,2
SumiRating_stimuli-practice-chase_sleep.xlsx,SumiRating_stimuli-training-chase_sleep.xlsx,SumiRating_stimuli-test-chase_sleep.xlsx,SumiRating_stimuli-chase_sleep.xlsx,narrow_chase_M2.wav,,w,chase_M2.PNG,ha,M2,ava no amishi ha cheni,ava,bear,[W] Ku shi ani kea?; [P] Khu no ha cheni?,narrow,What's chasing (the animal)?,chasing,Khu no ha cheni?,The bear is chasing the cow.,amishi,1,cow,0,0,0,0,,,,,,,,,,,,,0,31,31,31,,,,,,,,,p,0,38.47749439,,,,,2018_Apr_16_1331,59.87666481,rating_try1,1,2
SumiRating_stimuli-practice-chase_sleep.xlsx,SumiRating_stimuli-training-chase_sleep.xlsx,SumiRating_stimuli-test-chase_sleep.xlsx,SumiRating_stimuli-chase_sleep.xlsx,narrow_chase_M3.wav,,w,chase_M3.PNG,ha,M3,ashe no awudu ha cheni,ashe,deer,[W] Ku shi ani kea?; [P] Khu no ha cheni?,narrow,What's chasing (the animal)?,chasing,Khu no ha cheni?,The deer is chasing the rooster.,awudu,1,rooster,0,0,0,0,,,,,,,,,,,,,0,32,32,32,,,,,,,,,w,1,19.97324289,,,,,2018_Apr_16_1331,59.87666481,rating_try1,1,2
SumiRating_stimuli-practice-chase_sleep.xlsx,SumiRating_stimuli-training-chase_sleep.xlsx,SumiRating_stimuli-test-chase_sleep.xlsx,SumiRating_stimuli-chase_sleep.xlsx,broad_chase_H1.wav,,p,chase_H1.PNG,ha,H1,ami no atsü ha cheni,ami,mosquito,[W] Ku shi ani kea?; [P] Khu no ha cheni?,broad,What's happening?,chasing,Ku shi ani kea?,The mosquito is chasing the dog.,atsü,1,dog,0,0,0,0,,,,,,,,,,,,,0,33,33,33,,,,,,,,,w,0,24.47893477,,,,,2018_Apr_16_1331,59.87666481,rating_try1,1,2
SumiRating_stimuli-practice-chase_sleep.xlsx,SumiRating_stimuli-training-chase_sleep.xlsx,SumiRating_stimuli-test-chase_sleep.xlsx,SumiRating_stimuli-chase_sleep.xlsx,narrow_chase_L3.wav,,w,chase_L3.PNG,ha,L3,amishi no ane ha cheni,amishi,cow,[W] Ku shi ani kea?; [P] Khu no ha cheni?,narrow,What's chasing (the animal)?,chasing,Khu no ha cheni?,The cow is chasing the goat.,ane,1,goat,0,0,0,0,,,,,,,,,,,,,0,34,34,34,,,,,,,,,w,1,38.02661163,,,,,2018_Apr_16_1331,59.87666481,rating_try1,1,2
SumiRating_stimuli-practice-chase_sleep.xlsx,SumiRating_stimuli-training-chase_sleep.xlsx,SumiRating_stimuli-test-chase_sleep.xlsx,SumiRating_stimuli-chase_sleep.xlsx,narrow_chase_M4.wav,,w,chase_M4.PNG,ha,M4,akhi no ami ha cheni,akhi,bee,[W] Ku shi ani kea?; [P] Khu no ha cheni?,narrow,What's chasing (the animal)?,chasing,Khu no ha cheni?,The bee is chasing the mosquito.,ami,1,mosquito,0,0,0,0,,,,,,,,,,,,,0,35,35,35,,,,,,,,,w,1,30.73528606,,,,,2018_Apr_16_1331,59.87666481,rating_try1,1,2
SumiRating_stimuli-practice-chase_sleep.xlsx,SumiRating_stimuli-training-chase_sleep.xlsx,SumiRating_stimuli-test-chase_sleep.xlsx,SumiRating_stimuli-chase_sleep.xlsx,narrow_chase_H1.wav,,w,chase_H1.PNG,ha,H1,ami no atsü ha cheni,ami,mosquito,[W] Ku shi ani kea?; [P] Khu no ha cheni?,narrow,What's chasing (the animal)?,chasing,Khu no ha cheni?,The mosquito is chasing the dog.,atsü,1,dog,0,0,0,0,,,,,,,,,,,,,0,36,36,36,,,,,,,,,w,1,12.19808052,,,,,2018_Apr_16_1331,59.87666481,rating_try1,1,2
SumiRating_stimuli-practice-chase_sleep.xlsx,SumiRating_stimuli-training-chase_sleep.xlsx,SumiRating_stimuli-test-chase_sleep.xlsx,SumiRating_stimuli-chase_sleep.xlsx,broad_sleep_L3.wav,,p,sleep_L3.PNG,zü,L3,amishi no zü ani,amishi,cow,[W] Ku shi ani kea?; [P] Khu no zü cheni?,broad,What's happening?,sleeping,Ku shi ani kea?,The cow is sleeping.,None,1,None,0,0,0,0,,,,,,,,,,,,,0,37,37,37,,,,,,,,,p,1,12.01483359,,,,,2018_Apr_16_1331,59.87666481,rating_try1,1,2
SumiRating_stimuli-practice-chase_sleep.xlsx,SumiRating_stimuli-training-chase_sleep.xlsx,SumiRating_stimuli-test-chase_sleep.xlsx,SumiRating_stimuli-chase_sleep.xlsx,broad_chase_M3.wav,,p,chase_M3.PNG,ha,M3,ashe no awudu ha cheni,ashe,deer,[W] Ku shi ani kea?; [P] Khu no ha cheni?,broad,What's happening?,chasing,Ku shi ani kea?,The deer is chasing the rooster.,awudu,1,rooster,0,0,0,0,,,,,,,,,,,,,0,38,38,38,,,,,,,,,p,1,10.52966795,,,,,2018_Apr_16_1331,59.87666481,rating_try1,1,2
SumiRating_stimuli-practice-chase_sleep.xlsx,SumiRating_stimuli-training-chase_sleep.xlsx,SumiRating_stimuli-test-chase_sleep.xlsx,SumiRating_stimuli-chase_sleep.xlsx,broad_sleep_M2.wav,,p,sleep_M2.PNG,zü,M2,ava no zü ani,ava,bear,[W] Ku shi ani kea?; [P] Khu no zü cheni?,broad,What's happening?,sleeping,Ku shi ani kea?,The bear is sleeping.,None,1,None,0,0,0,0,,,,,,,,,,,,,0,39,39,39,,,,,,,,,p,1,2.386667455,,,,,2018_Apr_16_1331,59.87666481,rating_try1,1,2
SumiRating_stimuli-practice-chase_sleep.xlsx,SumiRating_stimuli-training-chase_sleep.xlsx,SumiRating_stimuli-test-chase_sleep.xlsx,SumiRating_stimuli-chase_sleep.xlsx,broad_chase_M1.wav,,p,chase_M1.PNG,ha,M1,avi no atsü ha cheni,avi,mithun,[W] Ku shi ani kea?; [P] Khu no ha cheni?,broad,What's happening?,chasing,Ku shi ani kea?,The mithun is chasing the dog.,atsü,1,dog,0,0,0,0,,,,,,,,,,,,,0,40,40,40,,,,,,,,,p,1,35.90799896,,,,,2018_Apr_16_1331,59.87666481,rating_try1,1,2
SumiRating_stimuli-practice-chase_sleep.xlsx,SumiRating_stimuli-training-chase_sleep.xlsx,SumiRating_stimuli-test-chase_sleep.xlsx,SumiRating_stimuli-chase_sleep.xlsx,broad_sleep_H1.wav,,p,sleep_H1.PNG,zü,H1,ami no zü ani,ami,mosquito,[W] Ku shi ani kea?; [P] Khu no zü cheni?,broad,What's happening?,sleeping,Ku shi ani kea?,The mosquito is sleeping.,None,1,None,0,0,0,0,,,,,,,,,,,,,0,41,41,41,,,,,,,,,p,1,21.54198575,,,,,2018_Apr_16_1331,59.87666481,rating_try1,1,2
SumiRating_stimuli-practice-chase_sleep.xlsx,SumiRating_stimuli-training-chase_sleep.xlsx,SumiRating_stimuli-test-chase_sleep.xlsx,SumiRating_stimuli-chase_sleep.xlsx,broad_chase_H3.wav,,p,chase_H3.PNG,ha,H3,awudu no agha ha cheni,awudu,rooster,[W] Ku shi ani kea?; [P] Khu no ha cheni?,broad,What's happening?,chasing,Ku shi ani kea?,The rooster is chasing the crow.,agha,1,crow,0,0,0,0,,,,,,,,,,,,,0,42,42,42,,,,,,,,,p,1,49.7226187,,,,,2018_Apr_16_1331,59.87666481,rating_try1,1,2
SumiRating_stimuli-practice-chase_sleep.xlsx,SumiRating_stimuli-training-chase_sleep.xlsx,SumiRating_stimuli-test-chase_sleep.xlsx,SumiRating_stimuli-chase_sleep.xlsx,broad_chase_H4.wav,,p,chase_H4.PNG,ha,H4,apighi no amishi ha cheni,apighi,snake,[W] Ku shi ani kea?; [P] Khu no ha cheni?,broad,What's happening?,chasing,Ku shi ani kea?,The snake is chasing the cow.,amishi,1,cow,0,0,0,0,,,,,,,,,,,,,0,43,43,43,,,,,,,,,w,0,29.0987768,,,,,2018_Apr_16_1331,59.87666481,rating_try1,1,2
SumiRating_stimuli-practice-chase_sleep.xlsx,SumiRating_stimuli-training-chase_sleep.xlsx,SumiRating_stimuli-test-chase_sleep.xlsx,SumiRating_stimuli-chase_sleep.xlsx,narrow_chase_L2.wav,,w,chase_L2.PNG,ha,L2,atsü no ane ha cheni,atsü,dog,[W] Ku shi ani kea?; [P] Khu no ha cheni?,narrow,What's chasing (the animal)?,chasing,Khu no ha cheni?,The dog is chasing the goat.,ane,1,goat,0,0,0,0,,,,,,,,,,,,,0,44,44,44,,,,,,,,,w,1,23.74457864,,,,,2018_Apr_16_1331,59.87666481,rating_try1,1,2
SumiRating_stimuli-practice-chase_sleep.xlsx,SumiRating_stimuli-training-chase_sleep.xlsx,SumiRating_stimuli-test-chase_sleep.xlsx,SumiRating_stimuli-chase_sleep.xlsx,narrow_chase_M1.wav,,w,chase_M1.PNG,ha,M1,avi no atsü ha cheni,avi,mithun,[W] Ku shi ani kea?; [P] Khu no ha cheni?,narrow,What's chasing (the animal)?,chasing,Khu no ha cheni?,The mithun is chasing the dog.,atsü,1,dog,0,0,0,0,,,,,,,,,,,,,0,45,45,45,,,,,,,,,p,0,16.95415652,,,,,2018_Apr_16_1331,59.87666481,rating_try1,1,2
SumiRating_stimuli-practice-chase_sleep.xlsx,SumiRating_stimuli-training-chase_sleep.xlsx,SumiRating_stimuli-test-chase_sleep.xlsx,SumiRating_stimuli-chase_sleep.xlsx,narrow_sleep_L1.wav,,w,sleep_L1.PNG,zü,L1,awo no zü ani,awo,pig,[W] Ku shi ani kea?; [P] Khu no ha cheni?,narrow,What's sleeping?,sleeping,Khu no zü ani?,The pig is sleeping.,None,1,None,0,0,0,0,,,,,,,,,,,,,0,46,46,46,,,,,,,,,p,0,6.574584065,,,,,2018_Apr_16_1331,59.87666481,rating_try1,1,2
SumiRating_stimuli-practice-chase_sleep.xlsx,SumiRating_stimuli-training-chase_sleep.xlsx,SumiRating_stimuli-test-chase_sleep.xlsx,SumiRating_stimuli-chase_sleep.xlsx,broad_sleep_L4.wav,,p,sleep_L4.PNG,zü,L4,ane no zü ani,ane,goat,[W] Ku shi ani kea?; [P] Khu no zü cheni?,broad,What's happening?,sleeping,Ku shi ani kea?,The goat is sleeping.,None,1,None,0,0,0,0,,,,,,,,,,,,,0,47,47,47,,,,,,,,,w,0,8.293780185,,,,,2018_Apr_16_1331,59.87666481,rating_try1,1,2
SumiRating_stimuli-practice-bigger.xlsx,SumiRating_stimuli-training-bigger.xlsx,SumiRating_stimuli-test-bigger.xlsx,SumiRating_stimuli-bigger.xlsx,narrow_big_H2.wav,,w,big_H2.PNG,akijeu,H2,akuhu no akijeu,akuhu,gibbon,[W] Ku shi ani kea?; [P] Khiu no akijeu?,narrow,Which one is bigger?,bigger,Khiu no akijeu kea?,The gibbon is bigger.,atsü,1,dog,0,1,1,1,,,,,,,,,,,,,0,0,0,0,,,,,,,,,w,1,2.371449354,,,,,2018_Apr_16_1331,59.87666481,rating_try1,1,2
SumiRating_stimuli-practice-bigger.xlsx,SumiRating_stimuli-training-bigger.xlsx,SumiRating_stimuli-test-bigger.xlsx,SumiRating_stimuli-bigger.xlsx,narrow_big_H3.wav,,w,big_H3.PNG,akijeu,H3,awudu no akijeu,awudu,rooster,[W] Ku shi ani kea?; [P] Khiu no akijeu?,narrow,Which one is bigger?,bigger,Khiu no akijeu kea?,The rooster is bigger.,agha,1,crow,0,1,1,1,,,,,,,,,,,,,0,1,1,1,,,,,,,,,w,1,2.370726592,,,,,2018_Apr_16_1331,59.87666481,rating_try1,1,2
SumiRating_stimuli-practice-bigger.xlsx,SumiRating_stimuli-training-bigger.xlsx,SumiRating_stimuli-test-bigger.xlsx,SumiRating_stimuli-bigger.xlsx,narrow_big_H4.wav,,w,big_H4.PNG,akijeu,H4,apighi no akijeu,apighi,snake,[W] Ku shi ani kea?; [P] Khiu no akijeu?,narrow,Which one is bigger?,bigger,Khiu no akijeu kea?,The snake is bigger.,akhosa,1,cat,0,1,1,1,,,,,,,,,,,,,0,2,2,2,,,,,,,,,w,1,1.719208457,,,,,2018_Apr_16_1331,59.87666481,rating_try1,1,2
SumiRating_stimuli-practice-bigger.xlsx,SumiRating_stimuli-training-bigger.xlsx,SumiRating_stimuli-test-bigger.xlsx,SumiRating_stimuli-bigger.xlsx,narrow_big_L4.wav,,w,big_L4.PNG,akijeu,L4,ane no akijeu,ane,goat,[W] Ku shi ani kea?; [P] Khiu no akijeu?,narrow,Which one is bigger?,bigger,Khiu no akijeu kea?,The goat is bigger.,ashe,1,deer,0,1,1,1,,,,,,,,,,,,,0,3,3,3,,,,,,,,,w,1,4.640919337,,,,,2018_Apr_16_1331,59.87666481,rating_try1,1,2
SumiRating_stimuli-practice-bigger.xlsx,SumiRating_stimuli-training-bigger.xlsx,SumiRating_stimuli-test-bigger.xlsx,SumiRating_stimuli-bigger.xlsx,narrow_big_M3.wav,,w,big_M3.PNG,akijeu,M3,ashe no akijeu,ashe,deer,[W] Ku shi ani kea?; [P] Khiu no akijeu?,narrow,Which one is bigger?,bigger,Khiu no akijeu kea?,The deer is bigger.,awudu,1,rooster,0,1,1,1,,,,,,,,,,,,,0,4,4,4,,,,,,,,,w,1,1.621102495,,,,,2018_Apr_16_1331,59.87666481,rating_try1,1,2
SumiRating_stimuli-practice-bigger.xlsx,SumiRating_stimuli-training-bigger.xlsx,SumiRating_stimuli-test-bigger.xlsx,SumiRating_stimuli-bigger.xlsx,narrow_big_H1.wav,,w,big_H1.PNG,akijeu,H1,ami no akijeu,ami,mosquito,[W] Ku shi ani kea?; [P] Khiu no akijeu?,narrow,Which one is bigger?,bigger,Khiu no akijeu kea?,The mosquito is bigger.,akhi,1,bee,0,1,1,1,,,,,,,,,,,,,0,5,5,5,,,,,,,,,w,1,37.47726666,,,,,2018_Apr_16_1331,59.87666481,rating_try1,1,2
SumiRating_stimuli-practice-bigger.xlsx,SumiRating_stimuli-training-bigger.xlsx,SumiRating_stimuli-test-bigger.xlsx,SumiRating_stimuli-bigger.xlsx,narrow_big_M2.wav,,w,big_M2.PNG,akijeu,M2,ava no akijeu,ava,bear,[W] Ku shi ani kea?; [P] Khiu no akijeu?,narrow,Which one is bigger?,bigger,Khiu no akijeu kea?,The bear is bigger.,amishi,1,cow,0,1,1,1,,,,,,,,,,,,,0,6,6,6,,,,,,,,,w,1,6.959037482,,,,,2018_Apr_16_1331,59.87666481,rating_try1,1,2
SumiRating_stimuli-practice-bigger.xlsx,SumiRating_stimuli-training-bigger.xlsx,SumiRating_stimuli-test-bigger.xlsx,SumiRating_stimuli-bigger.xlsx,narrow_big_L2.wav,,w,big_L2.PNG,akijeu,L2,atsü no akijeu,atsü,dog,[W] Ku shi ani kea?; [P] Khiu no akijeu?,narrow,Which one is bigger?,bigger,Khiu no akijeu kea?,The dog is bigger.,apighi,1,snake,0,1,1,1,,,,,,,,,,,,,0,7,7,7,,,,,,,,,w,1,1.768792201,,,,,2018_Apr_16_1331,59.87666481,rating_try1,1,2
SumiRating_stimuli-practice-bigger.xlsx,SumiRating_stimuli-training-bigger.xlsx,SumiRating_stimuli-test-bigger.xlsx,SumiRating_stimuli-bigger.xlsx,narrow_big_L3.wav,,w,big_L3.PNG,akijeu,L3,amishi no akijeu,amishi,cow,[W] Ku shi ani kea?; [P] Khiu no akijeu?,narrow,Which one is bigger?,bigger,Khiu no akijeu kea?,The cow is bigger.,awo,1,pig,0,1,1,1,,,,,,,,,,,,,0,8,8,8,,,,,,,,,w,1,1.536541383,,,,,2018_Apr_16_1331,59.87666481,rating_try1,1,2
SumiRating_stimuli-practice-bigger.xlsx,SumiRating_stimuli-training-bigger.xlsx,SumiRating_stimuli-test-bigger.xlsx,SumiRating_stimuli-bigger.xlsx,narrow_big_M4.wav,,w,big_M4.PNG,akijeu,M4,akhi no akijeu,akhi,bee,[W] Ku shi ani kea?; [P] Khiu no akijeu?,narrow,Which one is bigger?,bigger,Khiu no akijeu kea?,The bee is bigger.,ami,1,mosquito,0,1,1,1,,,,,,,,,,,,,0,9,9,9,,,,,,,,,w,1,2.903548269,,,,,2018_Apr_16_1331,59.87666481,rating_try1,1,2
SumiRating_stimuli-practice-bigger.xlsx,SumiRating_stimuli-training-bigger.xlsx,SumiRating_stimuli-test-bigger.xlsx,SumiRating_stimuli-bigger.xlsx,narrow_big_M1.wav,,w,big_M1.PNG,akijeu,M1,avi no akijeu,avi,mithun,[W] Ku shi ani kea?; [P] Khiu no akijeu?,narrow,Which one is bigger?,bigger,Khiu no akijeu kea?,The mithun is bigger.,ane,1,goat,0,1,1,1,,,,,,,,,,,,,0,10,10,10,,,,,,,,,w,1,2.019231847,,,,,2018_Apr_16_1331,59.87666481,rating_try1,1,2
SumiRating_stimuli-practice-bigger.xlsx,SumiRating_stimuli-training-bigger.xlsx,SumiRating_stimuli-test-bigger.xlsx,SumiRating_stimuli-bigger.xlsx,narrow_big_L1.wav,,w,big_L1.PNG,akijeu,L1,awo no akijeu,awo,pig,[W] Ku shi ani kea?; [P] Khu no zü cheni?,narrow,Which one is bigger?,bigger,Khiu no akijeu kea?,The pig is bigger.,akuhu,1,gibbon,0,1,1,1,,,,,,,,,,,,,0,11,11,11,,,,,,,,,w,1,2.537540707,,,,,2018_Apr_16_1331,59.87666481,rating_try1,1,2
SumiRating_stimuli-practice-chase_sleep.xlsx,SumiRating_stimuli-training-chase_sleep.xlsx,SumiRating_stimuli-test-chase_sleep.xlsx,SumiRating_stimuli-chase_sleep.xlsx,broad_chase_L2.wav,,p,chase_L2.PNG,ha,L2,atsü no ane ha cheni,atsü,dog,[W] Ku shi ani kea?; [P] Khu no ha cheni?,broad,What's happening?,chasing,Ku shi ani kea?,The dog is chasing the goat.,ane,1,goat,0,0,0,0,,,,,,,,,,,,,0,0,0,0,,,,,,,,,p,1,12.24723143,,,,,2018_Apr_17_1007,59.85713539,rating_try1,1,3
SumiRating_stimuli-practice-chase_sleep.xlsx,SumiRating_stimuli-training-chase_sleep.xlsx,SumiRating_stimuli-test-chase_sleep.xlsx,SumiRating_stimuli-chase_sleep.xlsx,narrow_chase_L1.wav,,w,chase_L1.PNG,ha,L1,awo no awudu ha cheni,awo,pig,[W] Ku shi ani kea?; [P] Khu no ha cheni?,narrow,What's chasing (the animal)?,chasing,Khu no ha cheni?,The pig is chasing the rooster.,awudu,1,rooster,0,0,0,0,,,,,,,,,,,,,0,1,1,1,,,,,,,,,p,0,28.29912688,,,,,2018_Apr_17_1007,59.85713539,rating_try1,1,3
SumiRating_stimuli-practice-chase_sleep.xlsx,SumiRating_stimuli-training-chase_sleep.xlsx,SumiRating_stimuli-test-chase_sleep.xlsx,SumiRating_stimuli-chase_sleep.xlsx,broad_sleep_L2.wav,,p,sleep_L2.PNG,zü,L2,atsü no zü ani,atsü,dog,[W] Ku shi ani kea?; [P] Khu no zü cheni?,broad,What's happening?,sleeping,Ku shi ani kea?,The dog is sleeping.,None,1,None,0,0,0,0,,,,,,,,,,,,,0,2,2,2,,,,,,,,,w,0,13.64874532,,,,,2018_Apr_17_1007,59.85713539,rating_try1,1,3
SumiRating_stimuli-practice-chase_sleep.xlsx,SumiRating_stimuli-training-chase_sleep.xlsx,SumiRating_stimuli-test-chase_sleep.xlsx,SumiRating_stimuli-chase_sleep.xlsx,narrow_sleep_M1.wav,,w,sleep_M1.PNG,zü,M1,avi no zü ani,avi,mithun,[W] Ku shi ani kea?; [P] Khu no zü cheni?,narrow,What's sleeping?,sleeping,Khu no zü ani?,The mithun is sleeping.,None,1,None,0,0,0,0,,,,,,,,,,,,,0,3,3,3,,,,,,,,,w,1,3.206769084,,,,,2018_Apr_17_1007,59.85713539,rating_try1,1,3
SumiRating_stimuli-practice-chase_sleep.xlsx,SumiRating_stimuli-training-chase_sleep.xlsx,SumiRating_stimuli-test-chase_sleep.xlsx,SumiRating_stimuli-chase_sleep.xlsx,narrow_chase_H2.wav,,w,chase_H2.PNG,ha,H2,akuhu no awo ha cheni,akuhu,gibbon,[W] Ku shi ani kea?; [P] Khu no ha cheni?,narrow,What's chasing (the animal)?,chasing,Khu no ha cheni?,The gibbon is chasing the pig.,awo,1,pig,0,0,0,0,,,,,,,,,,,,,0,4,4,4,,,,,,,,,j,0,34.99021649,,,,,2018_Apr_17_1007,59.85713539,rating_try1,1,3
SumiRating_stimuli-practice-chase_sleep.xlsx,SumiRating_stimuli-training-chase_sleep.xlsx,SumiRating_stimuli-test-chase_sleep.xlsx,SumiRating_stimuli-chase_sleep.xlsx,narrow_sleep_H3.wav,,w,sleep_H3.PNG,zü,H3,awudu no zü ani,awudu,rooster,[W] Ku shi ani kea?; [P] Khu no zü cheni?,narrow,What's sleeping?,sleeping,Khu no zü ani?,The rooster is sleeping.,None,1,None,0,0,0,0,,,,,,,,,,,,,0,5,5,5,,,,,,,,,p,0,14.19813141,,,,,2018_Apr_17_1007,59.85713539,rating_try1,1,3
SumiRating_stimuli-practice-chase_sleep.xlsx,SumiRating_stimuli-training-chase_sleep.xlsx,SumiRating_stimuli-test-chase_sleep.xlsx,SumiRating_stimuli-chase_sleep.xlsx,narrow_sleep_L4.wav,,w,sleep_L4.PNG,zü,L4,ane no zü ani,ane,goat,[W] Ku shi ani kea?; [P] Khu no zü cheni?,narrow,What's sleeping?,sleeping,Khu no zü ani?,The goat is sleeping.,None,1,None,0,0,0,0,,,,,,,,,,,,,0,6,6,6,,,,,,,,,p,0,3.270805499,,,,,2018_Apr_17_1007,59.85713539,rating_try1,1,3
SumiRating_stimuli-practice-chase_sleep.xlsx,SumiRating_stimuli-training-chase_sleep.xlsx,SumiRating_stimuli-test-chase_sleep.xlsx,SumiRating_stimuli-chase_sleep.xlsx,broad_sleep_M3.wav,,p,sleep_M3.PNG,zü,M3,ashe no zü ani,ashe,deer,[W] Ku shi ani kea?; [P] Khu no zü cheni?,broad,What's happening?,sleeping,Ku shi ani kea?,The deer is sleeping.,None,1,None,0,0,0,0,,,,,,,,,,,,,0,7,7,7,,,,,,,,,w,0,6.192427962,,,,,2018_Apr_17_1007,59.85713539,rating_try1,1,3
SumiRating_stimuli-practice-chase_sleep.xlsx,SumiRating_stimuli-training-chase_sleep.xlsx,SumiRating_stimuli-test-chase_sleep.xlsx,SumiRating_stimuli-chase_sleep.xlsx,broad_sleep_L1.wav,,p,sleep_L1.PNG,zü,L1,awo no zü ani,awo,pig,[W] Ku shi ani kea?; [P] Khu no zü cheni?,broad,What's happening?,sleeping,Ku shi ani kea?,The pig is sleeping.,None,1,None,0,0,0,0,,,,,,,,,,,,,0,8,8,8,,,,,,,,,w,0,3.303816092,,,,,2018_Apr_17_1007,59.85713539,rating_try1,1,3
SumiRating_stimuli-practice-chase_sleep.xlsx,SumiRating_stimuli-training-chase_sleep.xlsx,SumiRating_stimuli-test-chase_sleep.xlsx,SumiRating_stimuli-chase_sleep.xlsx,broad_chase_M2.wav,,p,chase_M2.PNG,ha,M2,ava no amishi ha cheni,ava,bear,[W] Ku shi ani kea?; [P] Khu no ha cheni?,broad,What's happening?,chasing,Ku shi ani kea?,The bear is chasing the cow.,amishi,1,cow,0,0,0,0,,,,,,,,,,,,,0,9,9,9,,,,,,,,,w,0,2.454434372,,,,,2018_Apr_17_1007,59.85713539,rating_try1,1,3
SumiRating_stimuli-practice-chase_sleep.xlsx,SumiRating_stimuli-training-chase_sleep.xlsx,SumiRating_stimuli-test-chase_sleep.xlsx,SumiRating_stimuli-chase_sleep.xlsx,broad_sleep_M4.wav,,p,sleep_M4.PNG,zü,M4,akhi no zü ani,akhi,bee,[W] Ku shi ani kea?; [P] Khu no zü cheni?,broad,What's happening?,sleeping,Ku shi ani kea?,The bee is sleeping.,None,1,None,0,0,0,0,,,,,,,,,,,,,0,10,10,10,,,,,,,,,p,1,0.73592503,,,,,2018_Apr_17_1007,59.85713539,rating_try1,1,3
SumiRating_stimuli-practice-chase_sleep.xlsx,SumiRating_stimuli-training-chase_sleep.xlsx,SumiRating_stimuli-test-chase_sleep.xlsx,SumiRating_stimuli-chase_sleep.xlsx,broad_chase_L4.wav,,p,chase_L4.PNG,ha,L4,ane no awo ha cheni,ane,goat,[W] Ku shi ani kea?; [P] Khu no ha cheni?,broad,What's happening?,chasing,Ku shi ani kea?,The goat is chasing the pig.,awo,1,pig,0,0,0,0,,,,,,,,,,,,,0,11,11,11,,,,,,,,,w,0,1.853612911,,,,,2018_Apr_17_1007,59.85713539,rating_try1,1,3
SumiRating_stimuli-practice-chase_sleep.xlsx,SumiRating_stimuli-training-chase_sleep.xlsx,SumiRating_stimuli-test-chase_sleep.xlsx,SumiRating_stimuli-chase_sleep.xlsx,narrow_chase_H4.wav,,w,chase_H4.PNG,ha,H4,apighi no amishi ha cheni,apighi,snake,[W] Ku shi ani kea?; [P] Khu no ha cheni?,narrow,What's chasing (the animal)?,chasing,Khu no ha cheni?,The snake is chasing the cow.,amishi,1,cow,0,0,0,0,,,,,,,,,,,,,0,12,12,12,,,,,,,,,w,1,1.986701897,,,,,2018_Apr_17_1007,59.85713539,rating_try1,1,3
SumiRating_stimuli-practice-chase_sleep.xlsx,SumiRating_stimuli-training-chase_sleep.xlsx,SumiRating_stimuli-test-chase_sleep.xlsx,SumiRating_stimuli-chase_sleep.xlsx,broad_chase_M4.wav,,p,chase_M4.PNG,ha,M4,akhi no ami ha cheni,akhi,bee,[W] Ku shi ani kea?; [P] Khu no ha cheni?,broad,What's happening?,chasing,Ku shi ani kea?,The bee is chasing the mosquito.,ami,1,mosquito,0,0,0,0,,,,,,,,,,,,,0,13,13,13,,,,,,,,,w,0,1.369426031,,,,,2018_Apr_17_1007,59.85713539,rating_try1,1,3
SumiRating_stimuli-practice-chase_sleep.xlsx,SumiRating_stimuli-training-chase_sleep.xlsx,SumiRating_stimuli-test-chase_sleep.xlsx,SumiRating_stimuli-chase_sleep.xlsx,narrow_sleep_H4.wav,,w,sleep_H4.PNG,zü,H4,apighi no zü ani,apighi,snake,[W] Ku shi ani kea?; [P] Khu no zü cheni?,narrow,What's sleeping?,sleeping,Khu no zü ani?,The snake is sleeping.,None,1,None,0,0,0,0,,,,,,,,,,,,,0,14,14,14,,,,,,,,,p,0,0.401860367,,,,,2018_Apr_17_1007,59.85713539,rating_try1,1,3
SumiRating_stimuli-practice-chase_sleep.xlsx,SumiRating_stimuli-training-chase_sleep.xlsx,SumiRating_stimuli-test-chase_sleep.xlsx,SumiRating_stimuli-chase_sleep.xlsx,narrow_sleep_L2.wav,,w,sleep_L2.PNG,zü,L2,atsü no zü ani,atsü,dog,[W] Ku shi ani kea?; [P] Khu no zü cheni?,narrow,What's sleeping?,sleeping,Khu no zü ani?,The dog is sleeping.,None,1,None,0,0,0,0,,,,,,,,,,,,,0,15,15,15,,,,,,,,,w,1,3.672446879,,,,,2018_Apr_17_1007,59.85713539,rating_try1,1,3
SumiRating_stimuli-practice-chase_sleep.xlsx,SumiRating_stimuli-training-chase_sleep.xlsx,SumiRating_stimuli-test-chase_sleep.xlsx,SumiRating_stimuli-chase_sleep.xlsx,broad_sleep_M1.wav,,p,sleep_M1.PNG,zü,M1,avi no zü ani,avi,mithun,[W] Ku shi ani kea?; [P] Khu no zü cheni?,broad,What's happening?,sleeping,Ku shi ani kea?,The mithun is sleeping.,None,1,None,0,0,0,0,,,,,,,,,,,,,0,16,16,16,,,,,,,,,w,0,2.070272424,,,,,2018_Apr_17_1007,59.85713539,rating_try1,1,3
SumiRating_stimuli-practice-chase_sleep.xlsx,SumiRating_stimuli-training-chase_sleep.xlsx,SumiRating_stimuli-test-chase_sleep.xlsx,SumiRating_stimuli-chase_sleep.xlsx,broad_chase_L1.wav,,p,chase_L1.PNG,ha,L1,awo no awudu ha cheni,awo,pig,[W] Ku shi ani kea?; [P] Khu no ha cheni?,broad,What's happening?,chasing,Ku shi ani kea?,The pig is chasing the rooster.,awudu,1,rooster,0,0,0,0,,,,,,,,,,,,,0,17,17,17,,,,,,,,,p,1,0.969110401,,,,,2018_Apr_17_1007,59.85713539,rating_try1,1,3
SumiRating_stimuli-practice-chase_sleep.xlsx,SumiRating_stimuli-training-chase_sleep.xlsx,SumiRating_stimuli-test-chase_sleep.xlsx,SumiRating_stimuli-chase_sleep.xlsx,narrow_chase_L4.wav,,w,chase_L4.PNG,ha,L4,ane no awo ha cheni,ane,goat,[W] Ku shi ani kea?; [P] Khu no ha cheni?,narrow,What's chasing (the animal)?,chasing,Khu no ha cheni?,The goat is chasing the pig.,awo,1,pig,0,0,0,0,,,,,,,,,,,,,0,18,18,18,,,,,,,,,p,0,7.943320233,,,,,2018_Apr_17_1007,59.85713539,rating_try1,1,3
SumiRating_stimuli-practice-chase_sleep.xlsx,SumiRating_stimuli-training-chase_sleep.xlsx,SumiRating_stimuli-test-chase_sleep.xlsx,SumiRating_stimuli-chase_sleep.xlsx,broad_sleep_H4.wav,,p,sleep_H4.PNG,zü,H4,apighi no zü ani,apighi,snake,[W] Ku shi ani kea?; [P] Khu no zü cheni?,broad,What's happening?,sleeping,Ku shi ani kea?,The snake is sleeping.,None,1,None,0,0,0,0,,,,,,,,,,,,,0,19,19,19,,,,,,,,,p,1,0.836256339,,,,,2018_Apr_17_1007,59.85713539,rating_try1,1,3
SumiRating_stimuli-practice-chase_sleep.xlsx,SumiRating_stimuli-training-chase_sleep.xlsx,SumiRating_stimuli-test-chase_sleep.xlsx,SumiRating_stimuli-chase_sleep.xlsx,broad_chase_L3.wav,,p,chase_L3.PNG,ha,L3,amishi no ane ha cheni,amishi,cow,[W] Ku shi ani kea?; [P] Khu no ha cheni?,broad,What's happening?,chasing,Ku shi ani kea?,The cow is chasing the goat.,ane,1,goat,0,0,0,0,,,,,,,,,,,,,0,20,20,20,,,,,,,,,w,0,2.518849647,,,,,2018_Apr_17_1007,59.85713539,rating_try1,1,3
SumiRating_stimuli-practice-chase_sleep.xlsx,SumiRating_stimuli-training-chase_sleep.xlsx,SumiRating_stimuli-test-chase_sleep.xlsx,SumiRating_stimuli-chase_sleep.xlsx,broad_sleep_H2.wav,,p,sleep_H2.PNG,zü,H2,akuhu no zü ani,akuhu,gibbon,[W] Ku shi ani kea?; [P] Khu no zü cheni?,broad,What's happening?,sleeping,Ku shi ani kea?,The gibbon is sleeping.,None,1,None,0,0,0,0,,,,,,,,,,,,,0,21,21,21,,,,,,,,,p,1,0.918987927,,,,,2018_Apr_17_1007,59.85713539,rating_try1,1,3
SumiRating_stimuli-practice-chase_sleep.xlsx,SumiRating_stimuli-training-chase_sleep.xlsx,SumiRating_stimuli-test-chase_sleep.xlsx,SumiRating_stimuli-chase_sleep.xlsx,broad_sleep_H3.wav,,p,sleep_H3.PNG,zü,H3,awudu no zü ani,awudu,rooster,[W] Ku shi ani kea?; [P] Khu no zü cheni?,broad,What's happening?,sleeping,Ku shi ani kea?,The rooster is sleeping.,None,1,None,0,0,0,0,,,,,,,,,,,,,0,22,22,22,,,,,,,,,p,1,1.203264767,,,,,2018_Apr_17_1007,59.85713539,rating_try1,1,3
SumiRating_stimuli-practice-chase_sleep.xlsx,SumiRating_stimuli-training-chase_sleep.xlsx,SumiRating_stimuli-test-chase_sleep.xlsx,SumiRating_stimuli-chase_sleep.xlsx,narrow_sleep_M2.wav,,w,sleep_M2.PNG,zü,M2,ava no zü ani,ava,bear,[W] Ku shi ani kea?; [P] Khu no zü cheni?,narrow,What's sleeping?,sleeping,Khu no zü ani?,The bear is sleeping.,None,1,None,0,0,0,0,,,,,,,,,,,,,0,23,23,23,,,,,,,,,p,0,4.123009384,,,,,2018_Apr_17_1007,59.85713539,rating_try1,1,3
SumiRating_stimuli-practice-chase_sleep.xlsx,SumiRating_stimuli-training-chase_sleep.xlsx,SumiRating_stimuli-test-chase_sleep.xlsx,SumiRating_stimuli-chase_sleep.xlsx,narrow_sleep_M4.wav,,w,sleep_M4.PNG,zü,M4,akhi no zü ani,akhi,bee,[W] Ku shi ani kea?; [P] Khu no zü cheni?,narrow,What's sleeping?,sleeping,Khu no zü ani?,The bee is sleeping.,None,1,None,0,0,0,0,,,,,,,,,,,,,0,24,24,24,,,,,,,,,p,0,1.069374883,,,,,2018_Apr_17_1007,59.85713539,rating_try1,1,3
SumiRating_stimuli-practice-chase_sleep.xlsx,SumiRating_stimuli-training-chase_sleep.xlsx,SumiRating_stimuli-test-chase_sleep.xlsx,SumiRating_stimuli-chase_sleep.xlsx,broad_chase_H2.wav,,p,chase_H2.PNG,ha,H2,akuhu no awo ha cheni,akuhu,gibbon,[W] Ku shi ani kea?; [P] Khu no ha cheni?,broad,What's happening?,chasing,Ku shi ani kea?,The gibbon is chasing the pig.,awo,1,pig,0,0,0,0,,,,,,,,,,,,,0,25,25,25,,,,,,,,,w,0,0.5841419,,,,,2018_Apr_17_1007,59.85713539,rating_try1,1,3
SumiRating_stimuli-practice-chase_sleep.xlsx,SumiRating_stimuli-training-chase_sleep.xlsx,SumiRating_stimuli-test-chase_sleep.xlsx,SumiRating_stimuli-chase_sleep.xlsx,narrow_sleep_M3.wav,,w,sleep_M3.PNG,zü,M3,ashe no zü ani,ashe,deer,[W] Ku shi ani kea?; [P] Khu no zü cheni?,narrow,What's sleeping?,sleeping,Khu no zü ani?,The deer is sleeping.,None,1,None,0,0,0,0,,,,,,,,,,,,,0,26,26,26,,,,,,,,,p,0,4.355532138,,,,,2018_Apr_17_1007,59.85713539,rating_try1,1,3
SumiRating_stimuli-practice-chase_sleep.xlsx,SumiRating_stimuli-training-chase_sleep.xlsx,SumiRating_stimuli-test-chase_sleep.xlsx,SumiRating_stimuli-chase_sleep.xlsx,narrow_sleep_L3.wav,,w,sleep_L3.PNG,zü,L3,amishi no zü ani,amishi,cow,[W] Ku shi ani kea?; [P] Khu no zü cheni?,narrow,What's sleeping?,sleeping,Khu no zü ani?,The cow is sleeping.,None,1,None,0,0,0,0,,,,,,,,,,,,,0,27,27,27,,,,,,,,,p,0,4.106188458,,,,,2018_Apr_17_1007,59.85713539,rating_try1,1,3
SumiRating_stimuli-practice-chase_sleep.xlsx,SumiRating_stimuli-training-chase_sleep.xlsx,SumiRating_stimuli-test-chase_sleep.xlsx,SumiRating_stimuli-chase_sleep.xlsx,narrow_sleep_H1.wav,,w,sleep_H1.PNG,zü,H1,ami no zü ani,ami,mosquito,[W] Ku shi ani kea?; [P] Khu no zü cheni?,narrow,What's sleeping?,sleeping,Khu no zü ani?,The mosquito is sleeping.,None,1,None,0,0,0,0,,,,,,,,,,,,,0,28,28,28,,,,,,,,,p,0,1.286546395,,,,,2018_Apr_17_1007,59.85713539,rating_try1,1,3
SumiRating_stimuli-practice-chase_sleep.xlsx,SumiRating_stimuli-training-chase_sleep.xlsx,SumiRating_stimuli-test-chase_sleep.xlsx,SumiRating_stimuli-chase_sleep.xlsx,narrow_chase_H3.wav,,w,chase_H3.PNG,ha,H3,awudu no agha ha cheni,awudu,rooster,[W] Ku shi ani kea?; [P] Khu no ha cheni?,narrow,What's chasing (the animal)?,chasing,Khu no ha cheni?,The rooster is chasing the crow.,agha,1,crow,0,0,0,0,,,,,,,,,,,,,0,29,29,29,,,,,,,,,w,1,3.507155396,,,,,2018_Apr_17_1007,59.85713539,rating_try1,1,3
SumiRating_stimuli-practice-chase_sleep.xlsx,SumiRating_stimuli-training-chase_sleep.xlsx,SumiRating_stimuli-test-chase_sleep.xlsx,SumiRating_stimuli-chase_sleep.xlsx,narrow_sleep_H2.wav,,w,sleep_H2.PNG,zü,H2,akuhu no zü ani,akuhu,gibbon,[W] Ku shi ani kea?; [P] Khu no zü cheni?,narrow,What's sleeping?,sleeping,Khu no zü ani?,The gibbon is sleeping.,None,1,None,0,0,0,0,,,,,,,,,,,,,0,30,30,30,,,,,,,,,p,0,4.090457844,,,,,2018_Apr_17_1007,59.85713539,rating_try1,1,3
SumiRating_stimuli-practice-chase_sleep.xlsx,SumiRating_stimuli-training-chase_sleep.xlsx,SumiRating_stimuli-test-chase_sleep.xlsx,SumiRating_stimuli-chase_sleep.xlsx,narrow_chase_M2.wav,,w,chase_M2.PNG,ha,M2,ava no amishi ha cheni,ava,bear,[W] Ku shi ani kea?; [P] Khu no ha cheni?,narrow,What's chasing (the animal)?,chasing,Khu no ha cheni?,The bear is chasing the cow.,amishi,1,cow,0,0,0,0,,,,,,,,,,,,,0,31,31,31,,,,,,,,,w,1,2.404537568,,,,,2018_Apr_17_1007,59.85713539,rating_try1,1,3
SumiRating_stimuli-practice-chase_sleep.xlsx,SumiRating_stimuli-training-chase_sleep.xlsx,SumiRating_stimuli-test-chase_sleep.xlsx,SumiRating_stimuli-chase_sleep.xlsx,narrow_chase_M3.wav,,w,chase_M3.PNG,ha,M3,ashe no awudu ha cheni,ashe,deer,[W] Ku shi ani kea?; [P] Khu no ha cheni?,narrow,What's chasing (the animal)?,chasing,Khu no ha cheni?,The deer is chasing the rooster.,awudu,1,rooster,0,0,0,0,,,,,,,,,,,,,0,32,32,32,,,,,,,,,w,1,0.451965877,,,,,2018_Apr_17_1007,59.85713539,rating_try1,1,3
SumiRating_stimuli-practice-chase_sleep.xlsx,SumiRating_stimuli-training-chase_sleep.xlsx,SumiRating_stimuli-test-chase_sleep.xlsx,SumiRating_stimuli-chase_sleep.xlsx,broad_chase_H1.wav,,p,chase_H1.PNG,ha,H1,ami no atsü ha cheni,ami,mosquito,[W] Ku shi ani kea?; [P] Khu no ha cheni?,broad,What's happening?,chasing,Ku shi ani kea?,The mosquito is chasing the dog.,atsü,1,dog,0,0,0,0,,,,,,,,,,,,,0,33,33,33,,,,,,,,,j,0,19.79012602,,,,,2018_Apr_17_1007,59.85713539,rating_try1,1,3
SumiRating_stimuli-practice-chase_sleep.xlsx,SumiRating_stimuli-training-chase_sleep.xlsx,SumiRating_stimuli-test-chase_sleep.xlsx,SumiRating_stimuli-chase_sleep.xlsx,narrow_chase_L3.wav,,w,chase_L3.PNG,ha,L3,amishi no ane ha cheni,amishi,cow,[W] Ku shi ani kea?; [P] Khu no ha cheni?,narrow,What's chasing (the animal)?,chasing,Khu no ha cheni?,The cow is chasing the goat.,ane,1,goat,0,0,0,0,,,,,,,,,,,,,0,34,34,34,,,,,,,,,p,0,15.78585422,,,,,2018_Apr_17_1007,59.85713539,rating_try1,1,3
SumiRating_stimuli-practice-chase_sleep.xlsx,SumiRating_stimuli-training-chase_sleep.xlsx,SumiRating_stimuli-test-chase_sleep.xlsx,SumiRating_stimuli-chase_sleep.xlsx,narrow_chase_M4.wav,,w,chase_M4.PNG,ha,M4,akhi no ami ha cheni,akhi,bee,[W] Ku shi ani kea?; [P] Khu no ha cheni?,narrow,What's chasing (the animal)?,chasing,Khu no ha cheni?,The bee is chasing the mosquito.,ami,1,mosquito,0,0,0,0,,,,,,,,,,,,,0,35,35,35,,,,,,,,,w,1,16.3195647,,,,,2018_Apr_17_1007,59.85713539,rating_try1,1,3
SumiRating_stimuli-practice-chase_sleep.xlsx,SumiRating_stimuli-training-chase_sleep.xlsx,SumiRating_stimuli-test-chase_sleep.xlsx,SumiRating_stimuli-chase_sleep.xlsx,narrow_chase_H1.wav,,w,chase_H1.PNG,ha,H1,ami no atsü ha cheni,ami,mosquito,[W] Ku shi ani kea?; [P] Khu no ha cheni?,narrow,What's chasing (the animal)?,chasing,Khu no ha cheni?,The mosquito is chasing the dog.,atsü,1,dog,0,0,0,0,,,,,,,,,,,,,0,36,36,36,,,,,,,,,w,1,0.819052955,,,,,2018_Apr_17_1007,59.85713539,rating_try1,1,3
SumiRating_stimuli-practice-chase_sleep.xlsx,SumiRating_stimuli-training-chase_sleep.xlsx,SumiRating_stimuli-test-chase_sleep.xlsx,SumiRating_stimuli-chase_sleep.xlsx,broad_sleep_L3.wav,,p,sleep_L3.PNG,zü,L3,amishi no zü ani,amishi,cow,[W] Ku shi ani kea?; [P] Khu no zü cheni?,broad,What's happening?,sleeping,Ku shi ani kea?,The cow is sleeping.,None,1,None,0,0,0,0,,,,,,,,,,,,,0,37,37,37,,,,,,,,,p,1,8.244252987,,,,,2018_Apr_17_1007,59.85713539,rating_try1,1,3
SumiRating_stimuli-practice-chase_sleep.xlsx,SumiRating_stimuli-training-chase_sleep.xlsx,SumiRating_stimuli-test-chase_sleep.xlsx,SumiRating_stimuli-chase_sleep.xlsx,broad_chase_M3.wav,,p,chase_M3.PNG,ha,M3,ashe no awudu ha cheni,ashe,deer,[W] Ku shi ani kea?; [P] Khu no ha cheni?,broad,What's happening?,chasing,Ku shi ani kea?,The deer is chasing the rooster.,awudu,1,rooster,0,0,0,0,,,,,,,,,,,,,0,38,38,38,,,,,,,,,w,0,11.78129249,,,,,2018_Apr_17_1007,59.85713539,rating_try1,1,3
SumiRating_stimuli-practice-chase_sleep.xlsx,SumiRating_stimuli-training-chase_sleep.xlsx,SumiRating_stimuli-test-chase_sleep.xlsx,SumiRating_stimuli-chase_sleep.xlsx,broad_sleep_M2.wav,,p,sleep_M2.PNG,zü,M2,ava no zü ani,ava,bear,[W] Ku shi ani kea?; [P] Khu no zü cheni?,broad,What's happening?,sleeping,Ku shi ani kea?,The bear is sleeping.,None,1,None,0,0,0,0,,,,,,,,,,,,,0,39,39,39,,,,,,,,,p,1,3.872595441,,,,,2018_Apr_17_1007,59.85713539,rating_try1,1,3
SumiRating_stimuli-practice-chase_sleep.xlsx,SumiRating_stimuli-training-chase_sleep.xlsx,SumiRating_stimuli-test-chase_sleep.xlsx,SumiRating_stimuli-chase_sleep.xlsx,broad_chase_M1.wav,,p,chase_M1.PNG,ha,M1,avi no atsü ha cheni,avi,mithun,[W] Ku shi ani kea?; [P] Khu no ha cheni?,broad,What's happening?,chasing,Ku shi ani kea?,The mithun is chasing the dog.,atsü,1,dog,0,0,0,0,,,,,,,,,,,,,0,40,40,40,,,,,,,,,w,0,9.145253082,,,,,2018_Apr_17_1007,59.85713539,rating_try1,1,3
SumiRating_stimuli-practice-chase_sleep.xlsx,SumiRating_stimuli-training-chase_sleep.xlsx,SumiRating_stimuli-test-chase_sleep.xlsx,SumiRating_stimuli-chase_sleep.xlsx,broad_sleep_H1.wav,,p,sleep_H1.PNG,zü,H1,ami no zü ani,ami,mosquito,[W] Ku shi ani kea?; [P] Khu no zü cheni?,broad,What's happening?,sleeping,Ku shi ani kea?,The mosquito is sleeping.,None,1,None,0,0,0,0,,,,,,,,,,,,,0,41,41,41,,,,,,,,,p,1,1.770457741,,,,,2018_Apr_17_1007,59.85713539,rating_try1,1,3
SumiRating_stimuli-practice-chase_sleep.xlsx,SumiRating_stimuli-training-chase_sleep.xlsx,SumiRating_stimuli-test-chase_sleep.xlsx,SumiRating_stimuli-chase_sleep.xlsx,broad_chase_H3.wav,,p,chase_H3.PNG,ha,H3,awudu no agha ha cheni,awudu,rooster,[W] Ku shi ani kea?; [P] Khu no ha cheni?,broad,What's happening?,chasing,Ku shi ani kea?,The rooster is chasing the crow.,agha,1,crow,0,0,0,0,,,,,,,,,,,,,0,42,42,42,,,,,,,,,w,0,9.598136549,,,,,2018_Apr_17_1007,59.85713539,rating_try1,1,3
SumiRating_stimuli-practice-chase_sleep.xlsx,SumiRating_stimuli-training-chase_sleep.xlsx,SumiRating_stimuli-test-chase_sleep.xlsx,SumiRating_stimuli-chase_sleep.xlsx,broad_chase_H4.wav,,p,chase_H4.PNG,ha,H4,apighi no amishi ha cheni,apighi,snake,[W] Ku shi ani kea?; [P] Khu no ha cheni?,broad,What's happening?,chasing,Ku shi ani kea?,The snake is chasing the cow.,amishi,1,cow,0,0,0,0,,,,,,,,,,,,,0,43,43,43,,,,,,,,,w,0,2.337671791,,,,,2018_Apr_17_1007,59.85713539,rating_try1,1,3
SumiRating_stimuli-practice-chase_sleep.xlsx,SumiRating_stimuli-training-chase_sleep.xlsx,SumiRating_stimuli-test-chase_sleep.xlsx,SumiRating_stimuli-chase_sleep.xlsx,narrow_chase_L2.wav,,w,chase_L2.PNG,ha,L2,atsü no ane ha cheni,atsü,dog,[W] Ku shi ani kea?; [P] Khu no ha cheni?,narrow,What's chasing (the animal)?,chasing,Khu no ha cheni?,The dog is chasing the goat.,ane,1,goat,0,0,0,0,,,,,,,,,,,,,0,44,44,44,,,,,,,,,p,0,13.46598726,,,,,2018_Apr_17_1007,59.85713539,rating_try1,1,3
SumiRating_stimuli-practice-chase_sleep.xlsx,SumiRating_stimuli-training-chase_sleep.xlsx,SumiRating_stimuli-test-chase_sleep.xlsx,SumiRating_stimuli-chase_sleep.xlsx,narrow_chase_M1.wav,,w,chase_M1.PNG,ha,M1,avi no atsü ha cheni,avi,mithun,[W] Ku shi ani kea?; [P] Khu no ha cheni?,narrow,What's chasing (the animal)?,chasing,Khu no ha cheni?,The mithun is chasing the dog.,atsü,1,dog,0,0,0,0,,,,,,,,,,,,,0,45,45,45,,,,,,,,,w,1,9.512706168,,,,,2018_Apr_17_1007,59.85713539,rating_try1,1,3
SumiRating_stimuli-practice-chase_sleep.xlsx,SumiRating_stimuli-training-chase_sleep.xlsx,SumiRating_stimuli-test-chase_sleep.xlsx,SumiRating_stimuli-chase_sleep.xlsx,narrow_sleep_L1.wav,,w,sleep_L1.PNG,zü,L1,awo no zü ani,awo,pig,[W] Ku shi ani kea?; [P] Khu no ha cheni?,narrow,What's sleeping?,sleeping,Khu no zü ani?,The pig is sleeping.,None,1,None,0,0,0,0,,,,,,,,,,,,,0,46,46,46,,,,,,,,,p,0,1.002872028,,,,,2018_Apr_17_1007,59.85713539,rating_try1,1,3
SumiRating_stimuli-practice-chase_sleep.xlsx,SumiRating_stimuli-training-chase_sleep.xlsx,SumiRating_stimuli-test-chase_sleep.xlsx,SumiRating_stimuli-chase_sleep.xlsx,broad_sleep_L4.wav,,p,sleep_L4.PNG,zü,L4,ane no zü ani,ane,goat,[W] Ku shi ani kea?; [P] Khu no zü cheni?,broad,What's happening?,sleeping,Ku shi ani kea?,The goat is sleeping.,None,1,None,0,0,0,0,,,,,,,,,,,,,0,47,47,47,,,,,,,,,p,1,0.201700496,,,,,2018_Apr_17_1007,59.85713539,rating_try1,1,3
SumiRating_stimuli-practice-bigger.xlsx,SumiRating_stimuli-training-bigger.xlsx,SumiRating_stimuli-test-bigger.xlsx,SumiRating_stimuli-bigger.xlsx,narrow_big_H2.wav,,w,big_H2.PNG,akijeu,H2,akuhu no akijeu,akuhu,gibbon,[W] Ku shi ani kea?; [P] Khiu no akijeu?,narrow,Which one is bigger?,bigger,Khiu no akijeu kea?,The gibbon is bigger.,atsü,1,dog,0,1,1,1,,,,,,,,,,,,,0,0,0,0,,,,,,,,,w,1,9.228497698,,,,,2018_Apr_17_1007,59.85713539,rating_try1,1,3
SumiRating_stimuli-practice-bigger.xlsx,SumiRating_stimuli-training-bigger.xlsx,SumiRating_stimuli-test-bigger.xlsx,SumiRating_stimuli-bigger.xlsx,narrow_big_H3.wav,,w,big_H3.PNG,akijeu,H3,awudu no akijeu,awudu,rooster,[W] Ku shi ani kea?; [P] Khiu no akijeu?,narrow,Which one is bigger?,bigger,Khiu no akijeu kea?,The rooster is bigger.,agha,1,crow,0,1,1,1,,,,,,,,,,,,,0,1,1,1,,,,,,,,,w,1,1.436558604,,,,,2018_Apr_17_1007,59.85713539,rating_try1,1,3
SumiRating_stimuli-practice-bigger.xlsx,SumiRating_stimuli-training-bigger.xlsx,SumiRating_stimuli-test-bigger.xlsx,SumiRating_stimuli-bigger.xlsx,narrow_big_H4.wav,,w,big_H4.PNG,akijeu,H4,apighi no akijeu,apighi,snake,[W] Ku shi ani kea?; [P] Khiu no akijeu?,narrow,Which one is bigger?,bigger,Khiu no akijeu kea?,The snake is bigger.,akhosa,1,cat,0,1,1,1,,,,,,,,,,,,,0,2,2,2,,,,,,,,,w,1,9.078527642,,,,,2018_Apr_17_1007,59.85713539,rating_try1,1,3
SumiRating_stimuli-practice-bigger.xlsx,SumiRating_stimuli-training-bigger.xlsx,SumiRating_stimuli-test-bigger.xlsx,SumiRating_stimuli-bigger.xlsx,narrow_big_L4.wav,,w,big_L4.PNG,akijeu,L4,ane no akijeu,ane,goat,[W] Ku shi ani kea?; [P] Khiu no akijeu?,narrow,Which one is bigger?,bigger,Khiu no akijeu kea?,The goat is bigger.,ashe,1,deer,0,1,1,1,,,,,,,,,,,,,0,3,3,3,,,,,,,,,p,0,5.124460563,,,,,2018_Apr_17_1007,59.85713539,rating_try1,1,3
SumiRating_stimuli-practice-bigger.xlsx,SumiRating_stimuli-training-bigger.xlsx,SumiRating_stimuli-test-bigger.xlsx,SumiRating_stimuli-bigger.xlsx,narrow_big_M3.wav,,w,big_M3.PNG,akijeu,M3,ashe no akijeu,ashe,deer,[W] Ku shi ani kea?; [P] Khiu no akijeu?,narrow,Which one is bigger?,bigger,Khiu no akijeu kea?,The deer is bigger.,awudu,1,rooster,0,1,1,1,,,,,,,,,,,,,0,4,4,4,,,,,,,,,w,1,1.837360016,,,,,2018_Apr_17_1007,59.85713539,rating_try1,1,3
SumiRating_stimuli-practice-bigger.xlsx,SumiRating_stimuli-training-bigger.xlsx,SumiRating_stimuli-test-bigger.xlsx,SumiRating_stimuli-bigger.xlsx,narrow_big_H1.wav,,w,big_H1.PNG,akijeu,H1,ami no akijeu,ami,mosquito,[W] Ku shi ani kea?; [P] Khiu no akijeu?,narrow,Which one is bigger?,bigger,Khiu no akijeu kea?,The mosquito is bigger.,akhi,1,bee,0,1,1,1,,,,,,,,,,,,,0,5,5,5,,,,,,,,,w,1,1.921878976,,,,,2018_Apr_17_1007,59.85713539,rating_try1,1,3
SumiRating_stimuli-practice-bigger.xlsx,SumiRating_stimuli-training-bigger.xlsx,SumiRating_stimuli-test-bigger.xlsx,SumiRating_stimuli-bigger.xlsx,narrow_big_M2.wav,,w,big_M2.PNG,akijeu,M2,ava no akijeu,ava,bear,[W] Ku shi ani kea?; [P] Khiu no akijeu?,narrow,Which one is bigger?,bigger,Khiu no akijeu kea?,The bear is bigger.,amishi,1,cow,0,1,1,1,,,,,,,,,,,,,0,6,6,6,,,,,,,,,w,1,3.723541946,,,,,2018_Apr_17_1007,59.85713539,rating_try1,1,3
SumiRating_stimuli-practice-bigger.xlsx,SumiRating_stimuli-training-bigger.xlsx,SumiRating_stimuli-test-bigger.xlsx,SumiRating_stimuli-bigger.xlsx,narrow_big_L2.wav,,w,big_L2.PNG,akijeu,L2,atsü no akijeu,atsü,dog,[W] Ku shi ani kea?; [P] Khiu no akijeu?,narrow,Which one is bigger?,bigger,Khiu no akijeu kea?,The dog is bigger.,apighi,1,snake,0,1,1,1,,,,,,,,,,,,,0,7,7,7,,,,,,,,,w,1,10.62834965,,,,,2018_Apr_17_1007,59.85713539,rating_try1,1,3
SumiRating_stimuli-practice-bigger.xlsx,SumiRating_stimuli-training-bigger.xlsx,SumiRating_stimuli-test-bigger.xlsx,SumiRating_stimuli-bigger.xlsx,narrow_big_L3.wav,,w,big_L3.PNG,akijeu,L3,amishi no akijeu,amishi,cow,[W] Ku shi ani kea?; [P] Khiu no akijeu?,narrow,Which one is bigger?,bigger,Khiu no akijeu kea?,The cow is bigger.,awo,1,pig,0,1,1,1,,,,,,,,,,,,,0,8,8,8,,,,,,,,,w,1,1.269748601,,,,,2018_Apr_17_1007,59.85713539,rating_try1,1,3
SumiRating_stimuli-practice-bigger.xlsx,SumiRating_stimuli-training-bigger.xlsx,SumiRating_stimuli-test-bigger.xlsx,SumiRating_stimuli-bigger.xlsx,narrow_big_M4.wav,,w,big_M4.PNG,akijeu,M4,akhi no akijeu,akhi,bee,[W] Ku shi ani kea?; [P] Khiu no akijeu?,narrow,Which one is bigger?,bigger,Khiu no akijeu kea?,The bee is bigger.,ami,1,mosquito,0,1,1,1,,,,,,,,,,,,,0,9,9,9,,,,,,,,,w,1,5.807818785,,,,,2018_Apr_17_1007,59.85713539,rating_try1,1,3
SumiRating_stimuli-practice-bigger.xlsx,SumiRating_stimuli-training-bigger.xlsx,SumiRating_stimuli-test-bigger.xlsx,SumiRating_stimuli-bigger.xlsx,narrow_big_M1.wav,,w,big_M1.PNG,akijeu,M1,avi no akijeu,avi,mithun,[W] Ku shi ani kea?; [P] Khiu no akijeu?,narrow,Which one is bigger?,bigger,Khiu no akijeu kea?,The mithun is bigger.,ane,1,goat,0,1,1,1,,,,,,,,,,,,,0,10,10,10,,,,,,,,,w,1,0.503459337,,,,,2018_Apr_17_1007,59.85713539,rating_try1,1,3
SumiRating_stimuli-practice-bigger.xlsx,SumiRating_stimuli-training-bigger.xlsx,SumiRating_stimuli-test-bigger.xlsx,SumiRating_stimuli-bigger.xlsx,narrow_big_L1.wav,,w,big_L1.PNG,akijeu,L1,awo no akijeu,awo,pig,[W] Ku shi ani kea?; [P] Khu no zü cheni?,narrow,Which one is bigger?,bigger,Khiu no akijeu kea?,The pig is bigger.,akuhu,1,gibbon,0,1,1,1,,,,,,,,,,,,,0,11,11,11,,,,,,,,,w,1,0.936663214,,,,,2018_Apr_17_1007,59.85713539,rating_try1,1,3
SumiRating_stimuli-practice-chase_sleep.xlsx,SumiRating_stimuli-training-chase_sleep.xlsx,SumiRating_stimuli-test-chase_sleep.xlsx,SumiRating_stimuli-chase_sleep.xlsx,broad_chase_L2.wav,,p,chase_L2.PNG,ha,L2,atsü no ane ha cheni,atsü,dog,[W] Ku shi ani kea?; [P] Khu no ha cheni?,broad,What's happening?,chasing,Ku shi ani kea?,The dog is chasing the goat.,ane,1,goat,0,0,0,0,,,,,,,,,,,,,0,0,0,0,,,,,,,,,w,0,14.21702552,,,,,2018_Apr_24_1126,59.97931123,rating_try1,1,4
SumiRating_stimuli-practice-chase_sleep.xlsx,SumiRating_stimuli-training-chase_sleep.xlsx,SumiRating_stimuli-test-chase_sleep.xlsx,SumiRating_stimuli-chase_sleep.xlsx,narrow_chase_L1.wav,,w,chase_L1.PNG,ha,L1,awo no awudu ha cheni,awo,pig,[W] Ku shi ani kea?; [P] Khu no ha cheni?,narrow,What's chasing (the animal)?,chasing,Khu no ha cheni?,The pig is chasing the rooster.,awudu,1,rooster,0,0,0,0,,,,,,,,,,,,,0,1,1,1,,,,,,,,,p,0,3.5557758,,,,,2018_Apr_24_1126,59.97931123,rating_try1,1,4
SumiRating_stimuli-practice-chase_sleep.xlsx,SumiRating_stimuli-training-chase_sleep.xlsx,SumiRating_stimuli-test-chase_sleep.xlsx,SumiRating_stimuli-chase_sleep.xlsx,broad_sleep_L2.wav,,p,sleep_L2.PNG,zü,L2,atsü no zü ani,atsü,dog,[W] Ku shi ani kea?; [P] Khu no zü cheni?,broad,What's happening?,sleeping,Ku shi ani kea?,The dog is sleeping.,None,1,None,0,0,0,0,,,,,,,,,,,,,0,2,2,2,,,,,,,,,w,0,4.59019696,,,,,2018_Apr_24_1126,59.97931123,rating_try1,1,4
SumiRating_stimuli-practice-chase_sleep.xlsx,SumiRating_stimuli-training-chase_sleep.xlsx,SumiRating_stimuli-test-chase_sleep.xlsx,SumiRating_stimuli-chase_sleep.xlsx,narrow_sleep_M1.wav,,w,sleep_M1.PNG,zü,M1,avi no zü ani,avi,mithun,[W] Ku shi ani kea?; [P] Khu no zü cheni?,narrow,What's sleeping?,sleeping,Khu no zü ani?,The mithun is sleeping.,None,1,None,0,0,0,0,,,,,,,,,,,,,0,3,3,3,,,,,,,,,j,0,6.308462126,,,,,2018_Apr_24_1126,59.97931123,rating_try1,1,4
SumiRating_stimuli-practice-chase_sleep.xlsx,SumiRating_stimuli-training-chase_sleep.xlsx,SumiRating_stimuli-test-chase_sleep.xlsx,SumiRating_stimuli-chase_sleep.xlsx,narrow_chase_H2.wav,,w,chase_H2.PNG,ha,H2,akuhu no awo ha cheni,akuhu,gibbon,[W] Ku shi ani kea?; [P] Khu no ha cheni?,narrow,What's chasing (the animal)?,chasing,Khu no ha cheni?,The gibbon is chasing the pig.,awo,1,pig,0,0,0,0,,,,,,,,,,,,,0,4,4,4,,,,,,,,,f,0,5.274040451,,,,,2018_Apr_24_1126,59.97931123,rating_try1,1,4
SumiRating_stimuli-practice-chase_sleep.xlsx,SumiRating_stimuli-training-chase_sleep.xlsx,SumiRating_stimuli-test-chase_sleep.xlsx,SumiRating_stimuli-chase_sleep.xlsx,narrow_sleep_H3.wav,,w,sleep_H3.PNG,zü,H3,awudu no zü ani,awudu,rooster,[W] Ku shi ani kea?; [P] Khu no zü cheni?,narrow,What's sleeping?,sleeping,Khu no zü ani?,The rooster is sleeping.,None,1,None,0,0,0,0,,,,,,,,,,,,,0,5,5,5,,,,,,,,,p,0,9.495475026,,,,,2018_Apr_24_1126,59.97931123,rating_try1,1,4
SumiRating_stimuli-practice-chase_sleep.xlsx,SumiRating_stimuli-training-chase_sleep.xlsx,SumiRating_stimuli-test-chase_sleep.xlsx,SumiRating_stimuli-chase_sleep.xlsx,narrow_sleep_L4.wav,,w,sleep_L4.PNG,zü,L4,ane no zü ani,ane,goat,[W] Ku shi ani kea?; [P] Khu no zü cheni?,narrow,What's sleeping?,sleeping,Khu no zü ani?,The goat is sleeping.,None,1,None,0,0,0,0,,,,,,,,,,,,,0,6,6,6,,,,,,,,,j,0,8.64472232,,,,,2018_Apr_24_1126,59.97931123,rating_try1,1,4
SumiRating_stimuli-practice-chase_sleep.xlsx,SumiRating_stimuli-training-chase_sleep.xlsx,SumiRating_stimuli-test-chase_sleep.xlsx,SumiRating_stimuli-chase_sleep.xlsx,broad_sleep_M3.wav,,p,sleep_M3.PNG,zü,M3,ashe no zü ani,ashe,deer,[W] Ku shi ani kea?; [P] Khu no zü cheni?,broad,What's happening?,sleeping,Ku shi ani kea?,The deer is sleeping.,None,1,None,0,0,0,0,,,,,,,,,,,,,0,7,7,7,,,,,,,,,f,0,4.089623017,,,,,2018_Apr_24_1126,59.97931123,rating_try1,1,4
SumiRating_stimuli-practice-chase_sleep.xlsx,SumiRating_stimuli-training-chase_sleep.xlsx,SumiRating_stimuli-test-chase_sleep.xlsx,SumiRating_stimuli-chase_sleep.xlsx,broad_sleep_L1.wav,,p,sleep_L1.PNG,zü,L1,awo no zü ani,awo,pig,[W] Ku shi ani kea?; [P] Khu no zü cheni?,broad,What's happening?,sleeping,Ku shi ani kea?,The pig is sleeping.,None,1,None,0,0,0,0,,,,,,,,,,,,,0,8,8,8,,,,,,,,,f,0,3.672393417,,,,,2018_Apr_24_1126,59.97931123,rating_try1,1,4
SumiRating_stimuli-practice-chase_sleep.xlsx,SumiRating_stimuli-training-chase_sleep.xlsx,SumiRating_stimuli-test-chase_sleep.xlsx,SumiRating_stimuli-chase_sleep.xlsx,broad_chase_M2.wav,,p,chase_M2.PNG,ha,M2,ava no amishi ha cheni,ava,bear,[W] Ku shi ani kea?; [P] Khu no ha cheni?,broad,What's happening?,chasing,Ku shi ani kea?,The bear is chasing the cow.,amishi,1,cow,0,0,0,0,,,,,,,,,,,,,0,9,9,9,,,,,,,,,p,1,5.040782598,,,,,2018_Apr_24_1126,59.97931123,rating_try1,1,4
SumiRating_stimuli-practice-chase_sleep.xlsx,SumiRating_stimuli-training-chase_sleep.xlsx,SumiRating_stimuli-test-chase_sleep.xlsx,SumiRating_stimuli-chase_sleep.xlsx,broad_sleep_M4.wav,,p,sleep_M4.PNG,zü,M4,akhi no zü ani,akhi,bee,[W] Ku shi ani kea?; [P] Khu no zü cheni?,broad,What's happening?,sleeping,Ku shi ani kea?,The bee is sleeping.,None,1,None,0,0,0,0,,,,,,,,,,,,,0,10,10,10,,,,,,,,,f,0,1.970549243,,,,,2018_Apr_24_1126,59.97931123,rating_try1,1,4
SumiRating_stimuli-practice-chase_sleep.xlsx,SumiRating_stimuli-training-chase_sleep.xlsx,SumiRating_stimuli-test-chase_sleep.xlsx,SumiRating_stimuli-chase_sleep.xlsx,broad_chase_L4.wav,,p,chase_L4.PNG,ha,L4,ane no awo ha cheni,ane,goat,[W] Ku shi ani kea?; [P] Khu no ha cheni?,broad,What's happening?,chasing,Ku shi ani kea?,The goat is chasing the pig.,awo,1,pig,0,0,0,0,,,,,,,,,,,,,0,11,11,11,,,,,,,,,f,0,4.823560195,,,,,2018_Apr_24_1126,59.97931123,rating_try1,1,4
SumiRating_stimuli-practice-chase_sleep.xlsx,SumiRating_stimuli-training-chase_sleep.xlsx,SumiRating_stimuli-test-chase_sleep.xlsx,SumiRating_stimuli-chase_sleep.xlsx,narrow_chase_H4.wav,,w,chase_H4.PNG,ha,H4,apighi no amishi ha cheni,apighi,snake,[W] Ku shi ani kea?; [P] Khu no ha cheni?,narrow,What's chasing (the animal)?,chasing,Khu no ha cheni?,The snake is chasing the cow.,amishi,1,cow,0,0,0,0,,,,,,,,,,,,,0,12,12,12,,,,,,,,,p,0,6.876706857,,,,,2018_Apr_24_1126,59.97931123,rating_try1,1,4
SumiRating_stimuli-practice-chase_sleep.xlsx,SumiRating_stimuli-training-chase_sleep.xlsx,SumiRating_stimuli-test-chase_sleep.xlsx,SumiRating_stimuli-chase_sleep.xlsx,broad_chase_M4.wav,,p,chase_M4.PNG,ha,M4,akhi no ami ha cheni,akhi,bee,[W] Ku shi ani kea?; [P] Khu no ha cheni?,broad,What's happening?,chasing,Ku shi ani kea?,The bee is chasing the mosquito.,ami,1,mosquito,0,0,0,0,,,,,,,,,,,,,0,13,13,13,,,,,,,,,f,0,4.273353159,,,,,2018_Apr_24_1126,59.97931123,rating_try1,1,4
SumiRating_stimuli-practice-chase_sleep.xlsx,SumiRating_stimuli-training-chase_sleep.xlsx,SumiRating_stimuli-test-chase_sleep.xlsx,SumiRating_stimuli-chase_sleep.xlsx,narrow_sleep_H4.wav,,w,sleep_H4.PNG,zü,H4,apighi no zü ani,apighi,snake,[W] Ku shi ani kea?; [P] Khu no zü cheni?,narrow,What's sleeping?,sleeping,Khu no zü ani?,The snake is sleeping.,None,1,None,0,0,0,0,,,,,,,,,,,,,0,14,14,14,,,,,,,,,f,0,2.637664337,,,,,2018_Apr_24_1126,59.97931123,rating_try1,1,4
SumiRating_stimuli-practice-chase_sleep.xlsx,SumiRating_stimuli-training-chase_sleep.xlsx,SumiRating_stimuli-test-chase_sleep.xlsx,SumiRating_stimuli-chase_sleep.xlsx,narrow_sleep_L2.wav,,w,sleep_L2.PNG,zü,L2,atsü no zü ani,atsü,dog,[W] Ku shi ani kea?; [P] Khu no zü cheni?,narrow,What's sleeping?,sleeping,Khu no zü ani?,The dog is sleeping.,None,1,None,0,0,0,0,,,,,,,,,,,,,0,15,15,15,,,,,,,,,f,0,1.536817431,,,,,2018_Apr_24_1126,59.97931123,rating_try1,1,4
SumiRating_stimuli-practice-chase_sleep.xlsx,SumiRating_stimuli-training-chase_sleep.xlsx,SumiRating_stimuli-test-chase_sleep.xlsx,SumiRating_stimuli-chase_sleep.xlsx,broad_sleep_M1.wav,,p,sleep_M1.PNG,zü,M1,avi no zü ani,avi,mithun,[W] Ku shi ani kea?; [P] Khu no zü cheni?,broad,What's happening?,sleeping,Ku shi ani kea?,The mithun is sleeping.,None,1,None,0,0,0,0,,,,,,,,,,,,,0,16,16,16,,,,,,,,,f,0,1.369986866,,,,,2018_Apr_24_1126,59.97931123,rating_try1,1,4
SumiRating_stimuli-practice-chase_sleep.xlsx,SumiRating_stimuli-training-chase_sleep.xlsx,SumiRating_stimuli-test-chase_sleep.xlsx,SumiRating_stimuli-chase_sleep.xlsx,broad_chase_L1.wav,,p,chase_L1.PNG,ha,L1,awo no awudu ha cheni,awo,pig,[W] Ku shi ani kea?; [P] Khu no ha cheni?,broad,What's happening?,chasing,Ku shi ani kea?,The pig is chasing the rooster.,awudu,1,rooster,0,0,0,0,,,,,,,,,,,,,0,17,17,17,,,,,,,,,f,0,1.921154157,,,,,2018_Apr_24_1126,59.97931123,rating_try1,1,4
SumiRating_stimuli-practice-chase_sleep.xlsx,SumiRating_stimuli-training-chase_sleep.xlsx,SumiRating_stimuli-test-chase_sleep.xlsx,SumiRating_stimuli-chase_sleep.xlsx,narrow_chase_L4.wav,,w,chase_L4.PNG,ha,L4,ane no awo ha cheni,ane,goat,[W] Ku shi ani kea?; [P] Khu no ha cheni?,narrow,What's chasing (the animal)?,chasing,Khu no ha cheni?,The goat is chasing the pig.,awo,1,pig,0,0,0,0,,,,,,,,,,,,,0,18,18,18,,,,,,,,,f,0,1.436597158,,,,,2018_Apr_24_1126,59.97931123,rating_try1,1,4
SumiRating_stimuli-practice-chase_sleep.xlsx,SumiRating_stimuli-training-chase_sleep.xlsx,SumiRating_stimuli-test-chase_sleep.xlsx,SumiRating_stimuli-chase_sleep.xlsx,broad_sleep_H4.wav,,p,sleep_H4.PNG,zü,H4,apighi no zü ani,apighi,snake,[W] Ku shi ani kea?; [P] Khu no zü cheni?,broad,What's happening?,sleeping,Ku shi ani kea?,The snake is sleeping.,None,1,None,0,0,0,0,,,,,,,,,,,,,0,19,19,19,,,,,,,,,f,0,2.271023973,,,,,2018_Apr_24_1126,59.97931123,rating_try1,1,4
SumiRating_stimuli-practice-chase_sleep.xlsx,SumiRating_stimuli-training-chase_sleep.xlsx,SumiRating_stimuli-test-chase_sleep.xlsx,SumiRating_stimuli-chase_sleep.xlsx,broad_chase_L3.wav,,p,chase_L3.PNG,ha,L3,amishi no ane ha cheni,amishi,cow,[W] Ku shi ani kea?; [P] Khu no ha cheni?,broad,What's happening?,chasing,Ku shi ani kea?,The cow is chasing the goat.,ane,1,goat,0,0,0,0,,,,,,,,,,,,,0,20,20,20,,,,,,,,,f,0,3.88961068,,,,,2018_Apr_24_1126,59.97931123,rating_try1,1,4
SumiRating_stimuli-practice-chase_sleep.xlsx,SumiRating_stimuli-training-chase_sleep.xlsx,SumiRating_stimuli-test-chase_sleep.xlsx,SumiRating_stimuli-chase_sleep.xlsx,broad_sleep_H2.wav,,p,sleep_H2.PNG,zü,H2,akuhu no zü ani,akuhu,gibbon,[W] Ku shi ani kea?; [P] Khu no zü cheni?,broad,What's happening?,sleeping,Ku shi ani kea?,The gibbon is sleeping.,None,1,None,0,0,0,0,,,,,,,,,,,,,0,21,21,21,,,,,,,,,f,0,1.620232199,,,,,2018_Apr_24_1126,59.97931123,rating_try1,1,4
SumiRating_stimuli-practice-chase_sleep.xlsx,SumiRating_stimuli-training-chase_sleep.xlsx,SumiRating_stimuli-test-chase_sleep.xlsx,SumiRating_stimuli-chase_sleep.xlsx,broad_sleep_H3.wav,,p,sleep_H3.PNG,zü,H3,awudu no zü ani,awudu,rooster,[W] Ku shi ani kea?; [P] Khu no zü cheni?,broad,What's happening?,sleeping,Ku shi ani kea?,The rooster is sleeping.,None,1,None,0,0,0,0,,,,,,,,,,,,,0,22,22,22,,,,,,,,,f,0,1.319954352,,,,,2018_Apr_24_1126,59.97931123,rating_try1,1,4
SumiRating_stimuli-practice-chase_sleep.xlsx,SumiRating_stimuli-training-chase_sleep.xlsx,SumiRating_stimuli-test-chase_sleep.xlsx,SumiRating_stimuli-chase_sleep.xlsx,narrow_sleep_M2.wav,,w,sleep_M2.PNG,zü,M2,ava no zü ani,ava,bear,[W] Ku shi ani kea?; [P] Khu no zü cheni?,narrow,What's sleeping?,sleeping,Khu no zü ani?,The bear is sleeping.,None,1,None,0,0,0,0,,,,,,,,,,,,,0,23,23,23,,,,,,,,,f,0,3.52251332,,,,,2018_Apr_24_1126,59.97931123,rating_try1,1,4
SumiRating_stimuli-practice-chase_sleep.xlsx,SumiRating_stimuli-training-chase_sleep.xlsx,SumiRating_stimuli-test-chase_sleep.xlsx,SumiRating_stimuli-chase_sleep.xlsx,narrow_sleep_M4.wav,,w,sleep_M4.PNG,zü,M4,akhi no zü ani,akhi,bee,[W] Ku shi ani kea?; [P] Khu no zü cheni?,narrow,What's sleeping?,sleeping,Khu no zü ani?,The bee is sleeping.,None,1,None,0,0,0,0,,,,,,,,,,,,,0,24,24,24,,,,,,,,,f,0,5.457827139,,,,,2018_Apr_24_1126,59.97931123,rating_try1,1,4
SumiRating_stimuli-practice-chase_sleep.xlsx,SumiRating_stimuli-training-chase_sleep.xlsx,SumiRating_stimuli-test-chase_sleep.xlsx,SumiRating_stimuli-chase_sleep.xlsx,broad_chase_H2.wav,,p,chase_H2.PNG,ha,H2,akuhu no awo ha cheni,akuhu,gibbon,[W] Ku shi ani kea?; [P] Khu no ha cheni?,broad,What's happening?,chasing,Ku shi ani kea?,The gibbon is chasing the pig.,awo,1,pig,0,0,0,0,,,,,,,,,,,,,0,25,25,25,,,,,,,,,f,0,2.070569548,,,,,2018_Apr_24_1126,59.97931123,rating_try1,1,4
SumiRating_stimuli-practice-chase_sleep.xlsx,SumiRating_stimuli-training-chase_sleep.xlsx,SumiRating_stimuli-test-chase_sleep.xlsx,SumiRating_stimuli-chase_sleep.xlsx,narrow_sleep_M3.wav,,w,sleep_M3.PNG,zü,M3,ashe no zü ani,ashe,deer,[W] Ku shi ani kea?; [P] Khu no zü cheni?,narrow,What's sleeping?,sleeping,Khu no zü ani?,The deer is sleeping.,None,1,None,0,0,0,0,,,,,,,,,,,,,0,26,26,26,,,,,,,,,f,0,3.138334409,,,,,2018_Apr_24_1126,59.97931123,rating_try1,1,4
SumiRating_stimuli-practice-chase_sleep.xlsx,SumiRating_stimuli-training-chase_sleep.xlsx,SumiRating_stimuli-test-chase_sleep.xlsx,SumiRating_stimuli-chase_sleep.xlsx,narrow_sleep_L3.wav,,w,sleep_L3.PNG,zü,L3,amishi no zü ani,amishi,cow,[W] Ku shi ani kea?; [P] Khu no zü cheni?,narrow,What's sleeping?,sleeping,Khu no zü ani?,The cow is sleeping.,None,1,None,0,0,0,0,,,,,,,,,,,,,0,27,27,27,,,,,,,,,p,0,4.557035236,,,,,2018_Apr_24_1126,59.97931123,rating_try1,1,4
SumiRating_stimuli-practice-chase_sleep.xlsx,SumiRating_stimuli-training-chase_sleep.xlsx,SumiRating_stimuli-test-chase_sleep.xlsx,SumiRating_stimuli-chase_sleep.xlsx,narrow_sleep_H1.wav,,w,sleep_H1.PNG,zü,H1,ami no zü ani,ami,mosquito,[W] Ku shi ani kea?; [P] Khu no zü cheni?,narrow,What's sleeping?,sleeping,Khu no zü ani?,The mosquito is sleeping.,None,1,None,0,0,0,0,,,,,,,,,,,,,0,28,28,28,,,,,,,,,f,0,3.005284491,,,,,2018_Apr_24_1126,59.97931123,rating_try1,1,4
SumiRating_stimuli-practice-chase_sleep.xlsx,SumiRating_stimuli-training-chase_sleep.xlsx,SumiRating_stimuli-test-chase_sleep.xlsx,SumiRating_stimuli-chase_sleep.xlsx,narrow_chase_H3.wav,,w,chase_H3.PNG,ha,H3,awudu no agha ha cheni,awudu,rooster,[W] Ku shi ani kea?; [P] Khu no ha cheni?,narrow,What's chasing (the animal)?,chasing,Khu no ha cheni?,The rooster is chasing the crow.,agha,1,crow,0,0,0,0,,,,,,,,,,,,,0,29,29,29,,,,,,,,,f,0,4.523490026,,,,,2018_Apr_24_1126,59.97931123,rating_try1,1,4
